Folder: silicates_github/silicates_UV_vis/Allylsilicates_plot (part 3)

File: is_2_8_allyl_acetate.csv
is_2_8_7uM,,is_2_8_15uM,,is_2_8_31uM,,is_2_8_62uM,,is_2_8_125uM1,,is_2_8_250uM,,
Wavelength (nm),Abs,Wavelength (nm),Abs,Wavelength (nm),Abs,Wavelength (nm),Abs,Wavelength (nm),Abs,Wavelength (nm),Abs,
799.953,-0.000657885,799.953,-0.00038553,799.953,-0.000108863,799.953,-0.000182509,799.953,0.00104462,799.953,0.00115255,
793.005,-0.000887706,793.005,-7.81686e-05,793.005,-0.000436322,793.005,0.000181654,793.005,0.000831813,793.005,0.00187479,
786.038,-0.00204869,786.038,-0.00198521,786.038,-0.00176123,786.038,-0.00127415,786.038,0.000174973,786.038,0.000446244,
779.053,-0.00292451,779.053,-0.00209661,779.053,-0.00170574,779.053,-0.00167975,779.053,-0.00108291,779.053,-0.000341095,
772.048,-0.0030694,772.048,-0.00251678,772.048,-0.00292107,772.048,-0.00307968,772.048,-0.00146103,772.048,-0.000984672,
765.025,-0.00401037,765.025,-0.00309248,765.025,-0.00367369,765.025,-0.00348745,765.025,-0.00258606,765.025,-0.00200345,
757.983,-0.00518715,757.983,-0.00478338,757.983,-0.00472234,757.983,-0.00445222,757.983,-0.00345802,757.983,-0.00290837,
751.065,-0.00652535,751.065,-0.0058266,751.065,-0.00614013,751.065,-0.005584,751.065,-0.00462328,751.065,-0.00436545,
743.987,-0.00841212,743.987,-0.00826534,743.987,-0.00808762,743.987,-0.00781531,743.987,-0.0070537,743.987,-0.00635207,
737.034,-0.00971913,737.034,-0.00960986,737.034,-0.00931494,737.034,-0.00931459,737.034,-0.00856128,737.034,-0.00777285,
730.063,-0.0104329,730.063,-0.00968855,730.063,-0.00980766,730.063,-0.00968126,730.063,-0.00866,730.063,-0.00846234,
722.933,-0.0148388,722.933,-0.0144542,722.933,-0.0141268,722.933,-0.01405,722.933,-0.0129229,722.933,-0.0127413,
715.928,-0.0148991,715.928,-0.0147771,715.928,-0.0148067,715.928,-0.0144433,715.928,-0.0136168,715.928,-0.0130579,
709.051,-0.00919488,709.051,-0.00975593,709.051,-0.00995103,709.051,-0.00969391,709.051,-0.00878808,709.051,-0.00797932,
702.014,-0.000496933,702.014,-0.000921546,702.014,-0.000958431,702.014,-0.000745239,702.014,0.000174532,702.014,0.000712863,
694.961,0.00719839,694.961,0.00782723,694.961,0.00730587,694.961,0.00808771,694.961,0.00889642,694.961,0.00953706,
688.036,0.0129938,688.036,0.0132393,688.036,0.0135648,688.036,0.0145997,688.036,0.0145639,688.036,0.0149217,
680.951,0.01635,680.951,0.0166743,680.951,0.0167427,680.951,0.0182498,680.951,0.0179814,680.951,0.0186706,
673.995,0.0177044,673.995,0.0183155,673.995,0.0181924,673.995,0.0206657,673.995,0.0197305,673.995,0.0199738,
667.024,0.0174484,667.024,0.0174561,667.024,0.0177915,667.024,0.0203099,667.024,0.0193397,667.024,0.0195109,
660.039,0.0155337,660.039,0.0160712,660.039,0.0160896,660.039,0.0184458,660.039,0.0175235,660.039,0.0179676,
653.039,0.0153388,653.039,0.0155182,653.039,0.0155429,653.039,0.0176791,653.039,0.0168572,653.039,0.0173387,
646.024,0.0151819,646.024,0.015869,646.024,0.0155921,646.024,0.0175476,646.024,0.0168043,646.024,0.0175296,
638.995,0.015342,638.995,0.01566,638.995,0.0153518,638.995,0.0166539,638.995,0.0167626,638.995,0.0177266,
631.952,0.0153362,631.952,0.0157846,631.952,0.015422,631.952,0.0160639,631.952,0.0169126,631.952,0.0178723,
625.042,0.0156241,625.042,0.0160172,625.042,0.0157806,625.042,0.0160258,625.042,0.0175603,625.042,0.0181655,
617.972,0.0155647,617.972,0.0155874,617.972,0.0156589,617.972,0.0159453,617.972,0.0170061,617.972,0.0181885,
611.035,0.0151025,611.035,0.0153482,611.035,0.015358,611.035,0.0156107,611.035,0.0166725,611.035,0.0174921,
603.937,0.0146024,603.937,0.0151375,603.937,0.015009,603.937,0.0154821,603.937,0.0168785,603.937,0.017314,
596.974,0.0143204,596.974,0.0145497,596.974,0.0147585,596.974,0.0152062,596.974,0.0162636,596.974,0.0168578,
589.999,0.0139626,589.999,0.0142663,589.999,0.0139602,589.999,0.014646,589.999,0.0156155,589.999,0.0161476,
583.011,0.0133801,583.011,0.0131219,583.011,0.013262,583.011,0.0134883,583.011,0.0145178,583.011,0.0152273,
576.01,0.0120462,576.01,0.0121694,576.01,0.0121722,576.01,0.0124166,576.01,0.0136624,576.01,0.0142091,
568.998,0.010391,568.998,0.0106425,568.998,0.0108654,568.998,0.0109316,568.998,0.0119814,568.998,0.0128638,
561.973,0.00853638,561.973,0.00877579,561.973,0.00881438,561.973,0.00912349,561.973,0.0102669,561.973,0.011172,
554.936,0.00642954,554.936,0.00686769,554.936,0.00685097,554.936,0.00706945,554.936,0.00829175,554.936,0.00935275,
548.038,0.00459208,548.038,0.00485084,548.038,0.00476229,548.038,0.00498667,548.038,0.00620981,548.038,0.00737787,
540.978,0.00356971,540.978,0.00387364,540.978,0.0040339,540.978,0.00418426,540.978,0.00534274,540.978,0.00674145,
534.057,0.00477755,534.057,0.00505494,534.057,0.00521516,534.057,0.00548069,534.057,0.00651404,534.057,0.00793204,
526.974,0.0093866,526.974,0.00958768,526.974,0.00976357,526.974,0.00999473,526.974,0.0110797,526.974,0.0127321,
520.031,0.0157191,520.031,0.0157057,520.031,0.0158763,520.031,0.0162779,520.031,0.0173847,520.031,0.0188825,
512.927,0.0211022,512.927,0.021354,512.927,0.021863,512.927,0.0218642,512.927,0.0230525,512.927,0.0243421,
505.962,0.0246089,505.962,0.0253493,505.962,0.0251391,505.962,0.0256475,505.962,0.0268205,505.962,0.0279019,
498.988,0.0259788,498.988,0.0264423,498.988,0.0264217,498.988,0.026663,498.988,0.028069,498.988,0.0291234,
492.003,0.025584,492.003,0.0258459,492.003,0.0260092,492.003,0.0262907,492.003,0.0274865,492.003,0.0286706,
485.009,0.0236061,485.009,0.023931,485.009,0.0239921,485.009,0.0244382,485.009,0.0257168,485.009,0.0268281,
478.004,0.021962,478.004,0.0223742,478.004,0.0223684,478.004,0.0228873,478.004,0.0241834,478.004,0.0256223,
470.99,0.0246333,470.99,0.0245146,470.99,0.0248361,470.99,0.0252632,470.99,0.0263141,470.99,0.0277336,
463.966,0.0303643,463.966,0.0305225,463.966,0.0303017,463.966,0.0312751,463.966,0.0323448,463.966,0.033776,
456.933,0.0346324,456.933,0.0350941,456.933,0.0349873,456.933,0.035637,456.933,0.0369423,456.933,0.0384806,
450.044,0.03739,450.044,0.0375237,450.044,0.0375428,450.044,0.0377598,450.044,0.0394025,450.044,0.040671,
442.992,0.0382555,442.992,0.0385148,442.992,0.0383805,442.992,0.0392532,442.992,0.0403275,442.992,0.0422408,
435.932,0.0379099,435.932,0.0381959,435.932,0.0381222,435.932,0.0387228,435.932,0.0402176,435.932,0.0417639,
429.016,0.0372736,429.016,0.0375378,429.016,0.0374529,429.016,0.0381081,429.016,0.039667,429.016,0.041406,
421.938,0.0367853,421.938,0.0368081,421.938,0.0369632,421.938,0.0377384,421.938,0.0392451,421.938,0.0410344,
415.005,0.0355937,415.005,0.0354809,415.005,0.0357034,415.005,0.0365757,415.005,0.0382457,415.005,0.0400928,
408.065,0.0337334,408.065,0.0338853,408.065,0.034339,408.065,0.0346289,408.065,0.0366731,408.065,0.0385743,
400.962,0.0312257,400.962,0.03194,400.962,0.0317394,400.962,0.0327668,400.962,0.0347281,400.962,0.0365399,
394.005,0.0300521,394.005,0.0304704,394.005,0.0305753,394.005,0.0317628,394.005,0.0334633,394.005,0.0357007,
387.041,0.0301487,387.041,0.0303149,387.041,0.0306053,387.041,0.032129,387.041,0.0336103,387.041,0.0358362,
380.069,0.0319228,380.069,0.0321585,380.069,0.0327019,380.069,0.0338568,380.069,0.0357876,380.069,0.0383793,
372.935,0.0361944,372.935,0.0364805,372.935,0.0370102,372.935,0.0381616,372.935,0.0403643,372.935,0.0431208,
365.948,0.0411914,365.948,0.0414848,365.948,0.0416962,365.948,0.0426972,365.948,0.0453463,365.948,0.0481616,
[...]
X Mode                            Nanometers
Y Mode                            Abs
UV-Vis Scan Rate (nm/min)         300.00
UV-Vis Data Interval (nm)         0.50
UV-Vis Ave. Time (sec)            0.1000
Beam Mode                         Dual Beam
Baseline Correction               Off
Cycle Mode                        Off
Comments
Method Log     :
Method Name    :
Date/Time stamp: 4/20/2024 5:05:46 PM
Method Modifications:
UVVIS SAT Changed: 4/29/2024 10:37:33 AM, Old:0.0125, New:0.1000
Common SAT Changed: 4/29/2024 10:37:33 AM, Old:0.0125, New:0.1000
Common Interval nm Changed: 4/29/2024 10:37:34 AM, Old:     5.00, New:     0.50
End Method Modifications
<Current Wavelength> , 200.5

is_2_8_62uM,
is_2_8_62uM
Collection Time: 4/29/2024 10:52:12 AM
Operator Name  :
Scan Software Version: 3.00(339)
Parameter List :
Instrument                        Cary 50
Instrument Version                3.00
Start (nm)                        800.0
Stop (nm)                         200.0
X Mode                            Nanometers
Y Mode                            Abs
UV-Vis Scan Rate (nm/min)         300.00
UV-Vis Data Interval (nm)         0.50
UV-Vis Ave. Time (sec)            0.1000
Beam Mode                         Dual Beam
Baseline Correction               Off
Cycle Mode                        Off
Comments
Method Log     :
Method Name    :
Date/Time stamp: 4/20/2024 5:05:46 PM
Method Modifications:
UVVIS SAT Changed: 4/29/2024 10:37:33 AM, Old:0.0125, New:0.1000
Common SAT Changed: 4/29/2024 10:37:33 AM, Old:0.0125, New:0.1000
Common Interval nm Changed: 4/29/2024 10:37:34 AM, Old:     5.00, New:     0.50
End Method Modifications
<Current Wavelength> , 200.5

is_2_8_125uM1,
is_2_8_125uM1
Collection Time: 4/29/2024 10:56:22 AM
Operator Name  :
Scan Software Version: 3.00(339)
Parameter List :
Instrument                        Cary 50
Instrument Version                3.00
Start (nm)                        800.0
Stop (nm)                         200.0
X Mode                            Nanometers
Y Mode                            Abs
UV-Vis Scan Rate (nm/min)         300.00
UV-Vis Data Interval (nm)         0.50
UV-Vis Ave. Time (sec)            0.1000
Beam Mode                         Dual Beam
Baseline Correction               Off
Cycle Mode                        Off
Comments
Method Log     :
Method Name    :
Date/Time stamp: 4/20/2024 5:05:46 PM
Method Modifications:
UVVIS SAT Changed: 4/29/2024 10:37:33 AM, Old:0.0125, New:0.1000
Common SAT Changed: 4/29/2024 10:37:33 AM, Old:0.0125, New:0.1000
Common Interval nm Changed: 4/29/2024 10:37:34 AM, Old:     5.00, New:     0.50
End Method Modifications
<Current Wavelength> , 200.5

is_2_8_250uM,
is_2_8_250uM
Collection Time: 4/29/2024 10:59:28 AM
Operator Name  :
Scan Software Version: 3.00(339)
Parameter List :
Instrument                        Cary 50
Instrument Version                3.00
Start (nm)                        800.0
Stop (nm)                         200.0
X Mode                            Nanometers
Y Mode                            Abs
UV-Vis Scan Rate (nm/min)         300.00
UV-Vis Data Interval (nm)         0.50
UV-Vis Ave. Time (sec)            0.1000
Beam Mode                         Dual Beam
Baseline Correction               Off
Cycle Mode                        Off
Comments
Method Log     :
Method Name    :
Date/Time stamp: 4/20/2024 5:05:46 PM
Method Modifications:
UVVIS SAT Changed: 4/29/2024 10:37:33 AM, Old:0.0125, New:0.1000
Common SAT Changed: 4/29/2024 10:37:33 AM, Old:0.0125, New:0.1000
Common Interval nm Changed: 4/29/2024 10:37:34 AM, Old:     5.00, New:     0.50
End Method Modifications
<Current Wavelength> , 200.5

File: is_2_9_allyl_methylcatechol.csv
is_2_9_7uM,,is_2_9_15uM1,,is_2_9_31uM2,,is_2_9_15uM,,is_2_9_31uM,,is_2_9_62uM,,is_2_9_125uM,,is_2_9_250uM,,
Wavelength (nm),Abs,Wavelength (nm),Abs,Wavelength (nm),Abs,Wavelength (nm),Abs,Wavelength (nm),Abs,Wavelength (nm),Abs,Wavelength (nm),Abs,Wavelength (nm),Abs,
799.953,-0.000807667,799.953,-0.000320454,799.953,0.000159331,799.953,0.00199578,799.953,0.00539419,799.953,0.00140072,799.953,0.00165569,799.953,0.00185987,
791.057,-0.00139926,791.057,-0.000607998,791.057,-0.000950837,791.057,0.0011798,791.057,0.0024527,791.057,0.00111331,791.057,0.000331881,791.057,0.00170293,
781.989,-0.00203246,781.989,-0.00173235,781.989,-0.00173513,781.989,-0.000213869,781.989,0.000485245,781.989,-0.000344975,781.989,-0.00017366,781.989,0.000961381,
773.03,-0.00281548,773.03,-0.00236676,773.03,-0.00233299,773.03,-0.000504173,773.03,-0.000156427,773.03,-0.000634829,773.03,-0.000832006,773.03,8.91345e-05,
764.04,-0.00400324,764.04,-0.00373724,764.04,-0.00376454,764.04,-0.00162786,764.04,-0.00174751,764.04,-0.00171105,764.04,-0.00197124,764.04,-0.00121329,
755.02,-0.00552537,755.02,-0.00533962,755.02,-0.00527799,755.02,-0.00302267,755.02,-0.00334157,755.02,-0.00327945,755.02,-0.00390828,755.02,-0.00242984,
745.971,-0.00751673,745.971,-0.0068261,745.971,-0.00718479,745.971,-0.00512867,745.971,-0.00447092,745.971,-0.00479331,745.971,-0.00507065,745.971,-0.00446359,
737.034,-0.0097333,737.034,-0.009827,737.034,-0.00968399,737.034,-0.00788177,737.034,-0.00753057,737.034,-0.00734165,737.034,-0.0080121,737.034,-0.00684312,
728.068,-0.0116686,728.068,-0.0113413,728.068,-0.0112358,728.068,-0.0091486,728.068,-0.0091887,728.068,-0.00899969,728.068,-0.00969579,728.068,-0.00824513,
718.932,-0.0155622,718.932,-0.0153545,718.932,-0.0152152,718.932,-0.0129852,718.932,-0.0130527,718.932,-0.012982,718.932,-0.0136701,718.932,-0.0119877,
710.055,-0.011631,710.055,-0.010832,710.055,-0.0108167,710.055,-0.00890581,710.055,-0.00871445,710.055,-0.00857484,710.055,-0.00920405,710.055,-0.00788156,
701.007,0.000227286,701.007,0.000403465,701.007,0.000645558,701.007,0.00249255,701.007,0.00265767,701.007,0.00283015,701.007,0.00246449,701.007,0.00352437,
691.933,0.010218,691.933,0.0103293,691.933,0.0103604,691.933,0.0129225,691.933,0.0130897,691.933,0.0130451,691.933,0.0124083,691.933,0.0140111,
682.976,0.0156974,682.976,0.0158463,682.976,0.0162535,682.976,0.0182483,682.976,0.0183713,682.976,0.0182256,682.976,0.0175193,682.976,0.0196183,
673.995,0.0178576,673.995,0.0179866,673.995,0.0183144,673.995,0.0206847,673.995,0.0205054,673.995,0.0207942,673.995,0.0199506,673.995,0.0215414,
664.988,0.0166669,664.988,0.0168098,664.988,0.0166226,664.988,0.0192179,664.988,0.0191882,664.988,0.0195506,664.988,0.0187503,664.988,0.0204914,
655.957,0.0153385,655.957,0.0157385,655.957,0.0158559,655.957,0.0181207,655.957,0.0183829,655.957,0.0182924,655.957,0.0178818,655.957,0.019577,
647.048,0.0153816,647.048,0.0156812,647.048,0.0161234,647.048,0.0179559,647.048,0.0185254,647.048,0.0180686,647.048,0.0177471,647.048,0.019436,
637.969,0.0152616,637.969,0.0157009,637.969,0.0157572,637.969,0.0179906,637.969,0.0183239,637.969,0.0184539,637.969,0.0178308,637.969,0.0200642,
629.013,0.0152313,629.013,0.0155636,629.013,0.0158881,629.013,0.018289,629.013,0.0184907,629.013,0.0182006,629.013,0.0178317,629.013,0.0195964,
620.035,0.0154043,620.035,0.0156966,620.035,0.0159349,620.035,0.0185123,620.035,0.0188599,620.035,0.0186217,620.035,0.0181428,620.035,0.0201395,
611.035,0.0146697,611.035,0.0151506,611.035,0.0153876,611.035,0.0182842,611.035,0.0181378,611.035,0.0180993,611.035,0.017588,611.035,0.0197834,
602.013,0.0143044,602.013,0.0147143,602.013,0.0147733,602.013,0.0182618,602.013,0.0177182,602.013,0.0179876,602.013,0.0175864,602.013,0.0191467,
592.969,0.0136972,592.969,0.0139464,592.969,0.0143891,592.969,0.017461,592.969,0.0173371,592.969,0.0173811,592.969,0.0170017,592.969,0.0188224,
584.052,0.0127399,584.052,0.0133496,584.052,0.0133426,584.052,0.0167358,584.052,0.016322,584.052,0.0165378,584.052,0.0165503,584.052,0.0180627,
574.967,0.0114012,574.967,0.0116463,574.967,0.0119324,574.967,0.0155397,574.967,0.0149612,574.967,0.0152731,574.967,0.0160899,574.967,0.0170192,
566.01,0.00936793,566.01,0.00985402,566.01,0.0100783,566.01,0.0135278,566.01,0.0130989,566.01,0.0132491,566.01,0.0134907,566.01,0.0149729,
557.033,0.0069654,557.033,0.00712516,557.033,0.00734335,557.033,0.0113119,557.033,0.0108064,557.033,0.0108946,557.033,0.0104927,557.033,0.0128138,
548.038,0.00411023,548.038,0.0043221,548.038,0.00465377,548.038,0.00848412,548.038,0.00807624,548.038,0.00810417,548.038,0.00779023,548.038,0.0102512,
539.023,0.0030912,539.023,0.00372035,539.023,0.00380952,539.023,0.00766994,539.023,0.0071656,539.023,0.00742029,539.023,0.00698984,539.023,0.00939777,
529.989,0.00690233,529.989,0.00694341,529.989,0.00737987,529.989,0.0113576,529.989,0.0109695,529.989,0.0111563,529.989,0.0109614,529.989,0.0136321,
520.937,0.0143242,520.937,0.0147865,520.937,0.0151027,520.937,0.0191914,520.937,0.0187762,520.937,0.0188764,520.937,0.0185966,520.937,0.0213072,
512.019,0.0213674,512.019,0.0217136,512.019,0.0220034,512.019,0.026485,512.019,0.025942,512.019,0.0263396,512.019,0.0259965,512.019,0.0286926,
502.931,0.0252712,502.931,0.0255604,502.931,0.0259364,502.931,0.0302815,502.931,0.0299466,502.931,0.0299716,502.931,0.0299139,502.931,0.0326415,
493.978,0.0253016,493.978,0.0256825,493.978,0.0258626,493.978,0.0305428,493.978,0.0300861,493.978,0.0302966,493.978,0.0301126,493.978,0.0330066,
485.009,0.0231649,485.009,0.0233745,485.009,0.0239152,485.009,0.0284648,485.009,0.0279509,485.009,0.0283213,485.009,0.0282548,485.009,0.0315136,
476.023,0.0220339,476.023,0.022022,476.023,0.0224833,476.023,0.0271717,476.023,0.026723,476.023,0.0273343,476.023,0.0273176,476.023,0.0303947,
467.021,0.0271237,467.021,0.0272197,467.021,0.0277848,467.021,0.0325976,467.021,0.0324684,467.021,0.0329651,467.021,0.032629,467.021,0.0364561,
458.004,0.0334823,458.004,0.0341691,458.004,0.0344485,458.004,0.0391032,458.004,0.0392543,458.004,0.039512,458.004,0.0396719,458.004,0.0434464,
448.971,0.0366574,448.971,0.0370708,448.971,0.0374208,448.971,0.042216,448.971,0.0425051,448.971,0.0427175,448.971,0.042969,448.971,0.0466908,
439.923,0.0376787,439.923,0.0381924,439.923,0.0384312,439.923,0.043494,439.923,0.0440086,439.923,0.0441481,439.923,0.0444487,439.923,0.0481593,
431.015,0.0368702,431.015,0.0371907,431.015,0.0377064,431.015,0.0425574,431.015,0.042937,431.015,0.0434389,431.015,0.0437952,431.015,0.0477358,
421.938,0.0359088,421.938,0.0363855,421.938,0.0368789,421.938,0.0419633,421.938,0.042361,421.938,0.0427376,421.938,0.0431015,421.938,0.0476293,
413.001,0.034194,413.001,0.0346166,413.001,0.0352803,413.001,0.0404654,413.001,0.0412207,413.001,0.0415076,413.001,0.0420923,413.001,0.0460889,
404.051,0.0317194,404.051,0.0320766,404.051,0.032742,404.051,0.0382957,404.051,0.0386868,404.051,0.0390525,404.051,0.0397182,404.051,0.0441707,
394.933,0.0292427,394.933,0.0296103,394.933,0.03063,394.933,0.036128,394.933,0.0364629,394.933,0.036937,394.933,0.0371786,394.933,0.0418009,
385.957,0.0290743,385.957,0.029415,385.957,0.0304142,385.957,0.0363117,385.957,0.0368702,385.957,0.0371488,385.957,0.037591,385.957,0.0420844,
[...]
X Mode                            Nanometers
Y Mode                            Abs
UV-Vis Scan Rate (nm/min)         300.00
UV-Vis Data Interval (nm)         0.50
UV-Vis Ave. Time (sec)            0.1000
Beam Mode                         Dual Beam
Baseline Correction               Off
Cycle Mode                        Off
Comments
Method Log     :
Method Name    :
Date/Time stamp: 4/20/2024 5:05:46 PM
Method Modifications:
UVVIS SAT Changed: 4/26/2024 12:45:06 PM, Old:0.0125, New:0.1000
Common SAT Changed: 4/26/2024 12:45:06 PM, Old:0.0125, New:0.1000
Common Interval nm Changed: 4/26/2024 12:45:07 PM, Old:     5.00, New:     0.50
End Method Modifications
<Current Wavelength> , 200.5

is_2_9_62uM,
is_2_9_62uM
Collection Time: 4/26/2024 1:18:35 PM
Operator Name  :
Scan Software Version: 3.00(339)
Parameter List :
Instrument                        Cary 50
Instrument Version                3.00
Start (nm)                        800.0
Stop (nm)                         200.0
X Mode                            Nanometers
Y Mode                            Abs
UV-Vis Scan Rate (nm/min)         300.00
UV-Vis Data Interval (nm)         0.50
UV-Vis Ave. Time (sec)            0.1000
Beam Mode                         Dual Beam
Baseline Correction               Off
Cycle Mode                        Off
Comments
Method Log     :
Method Name    :
Date/Time stamp: 4/20/2024 5:05:46 PM
Method Modifications:
UVVIS SAT Changed: 4/26/2024 12:45:06 PM, Old:0.0125, New:0.1000
Common SAT Changed: 4/26/2024 12:45:06 PM, Old:0.0125, New:0.1000
Common Interval nm Changed: 4/26/2024 12:45:07 PM, Old:     5.00, New:     0.50
End Method Modifications
<Current Wavelength> , 200.5

is_2_9_125uM,
is_2_9_125uM
Collection Time: 4/26/2024 1:21:57 PM
Operator Name  :
Scan Software Version: 3.00(339)
Parameter List :
Instrument                        Cary 50
Instrument Version                3.00
Start (nm)                        800.0
Stop (nm)                         200.0
X Mode                            Nanometers
Y Mode                            Abs
UV-Vis Scan Rate (nm/min)         300.00
UV-Vis Data Interval (nm)         0.50
UV-Vis Ave. Time (sec)            0.1000
Beam Mode                         Dual Beam
Baseline Correction               Off
Cycle Mode                        Off
Comments
Method Log     :
Method Name    :
Date/Time stamp: 4/20/2024 5:05:46 PM
Method Modifications:
UVVIS SAT Changed: 4/26/2024 12:45:06 PM, Old:0.0125, New:0.1000
Common SAT Changed: 4/26/2024 12:45:06 PM, Old:0.0125, New:0.1000
Common Interval nm Changed: 4/26/2024 12:45:07 PM, Old:     5.00, New:     0.50
End Method Modifications
<Current Wavelength> , 200.5

is_2_9_250uM,
is_2_9_250uM
Collection Time: 4/26/2024 1:27:57 PM
Operator Name  :
Scan Software Version: 3.00(339)
Parameter List :
Instrument                        Cary 50
Instrument Version                3.00
Start (nm)                        800.0
Stop (nm)                         200.0
X Mode                            Nanometers
Y Mode                            Abs
UV-Vis Scan Rate (nm/min)         300.00
UV-Vis Data Interval (nm)         0.50
UV-Vis Ave. Time (sec)            0.1000
Beam Mode                         Dual Beam
Baseline Correction               Off
Cycle Mode                        Off
Comments
Method Log     :
Method Name    :
Date/Time stamp: 4/20/2024 5:05:46 PM
Method Modifications:
UVVIS SAT Changed: 4/26/2024 12:45:06 PM, Old:0.0125, New:0.1000
Common SAT Changed: 4/26/2024 12:45:06 PM, Old:0.0125, New:0.1000
Common Interval nm Changed: 4/26/2024 12:45:07 PM, Old:     5.00, New:     0.50
End Method Modifications
<Current Wavelength> , 200.5