Folder: silicates_github/silicates_UV_vis/Allylsilicates_plot (part 2)

File: is_2_5_allyl_nitrile.csv
is_2_5_7uM,,is_2_5_15uM1,,is_2_5_31uM,,is_2_5_62uM,,is_2_5_125uM,,is_2_5_250uM1,,
Wavelength (nm),Abs,Wavelength (nm),Abs,Wavelength (nm),Abs,Wavelength (nm),Abs,Wavelength (nm),Abs,Wavelength (nm),Abs,
799.953,-0.000330852,799.953,0.000673661,799.953,-0.000929708,799.953,0.00389291,799.953,0.00264012,799.953,0.00442795,
793.562,0.000252565,793.562,-1.09755e-05,793.562,-0.000592695,793.562,0.00315776,793.562,0.00205656,793.562,0.00409434,
787.015,-0.00122779,787.015,-0.00121783,787.015,-0.0013315,787.015,0.00257015,787.015,7.80791e-05,787.015,0.00231709,
780.451,-0.00183573,780.451,-0.00128076,780.451,-0.00190955,780.451,0.00224514,780.451,7.38848e-05,780.451,0.00165641,
774.011,-0.00273353,774.011,-0.00273636,774.011,-0.0024807,774.011,0.0018196,774.011,-0.000507483,774.011,0.00149742,
767.555,-0.00321553,767.555,-0.0029585,767.555,-0.00344225,767.555,0.00118227,767.555,-0.000772578,767.555,0.00106898,
760.943,-0.00369745,760.943,-0.00426437,760.943,-0.00387678,760.943,8.6416e-05,760.943,-0.0013125,760.943,0.000539669,
754.455,-0.00498462,754.455,-0.00513537,754.455,-0.00574446,754.455,-0.00115732,754.455,-0.00197438,754.455,-0.000787358,
747.953,-0.00602139,747.953,-0.00638829,747.953,-0.00635376,747.953,-0.00235091,747.953,-0.00376192,747.953,-0.00187836,
741.435,-0.00818168,741.435,-0.00820901,741.435,-0.00861179,741.435,-0.00383316,741.435,-0.00592135,741.435,-0.00359462,
735.044,-0.00920613,735.044,-0.00915985,735.044,-0.00934291,735.044,-0.00481758,735.044,-0.00673598,735.044,-0.004425,
728.496,-0.0105575,728.496,-0.0104714,728.496,-0.0111099,728.496,-0.00623466,728.496,-0.00806313,728.496,-0.00564594,
721.933,-0.0142988,721.933,-0.0142479,721.933,-0.0147538,721.933,-0.00999237,721.933,-0.0119662,721.933,-0.00897251,
715.499,-0.0142799,715.499,-0.0143127,715.499,-0.0146056,715.499,-0.0102203,715.499,-0.0117822,715.499,-0.00980179,
709.051,-0.00943365,709.051,-0.00925266,709.051,-0.00997481,709.051,-0.00546873,709.051,-0.0072405,709.051,-0.00542849,
702.445,-0.00119764,702.445,-0.00123017,702.445,-0.00138791,702.445,0.00330769,702.445,0.00116641,702.445,0.00253635,
695.969,0.00744483,695.969,0.00802034,695.969,0.0072578,695.969,0.0126575,695.969,0.0100836,695.969,0.0115011,
689.479,0.0133323,689.479,0.0131281,689.479,0.0126678,689.479,0.0177242,689.479,0.0156215,689.479,0.0172547,
682.976,0.016575,682.976,0.0164838,682.976,0.0158059,682.976,0.0213975,682.976,0.0189177,682.976,0.0207361,
676.46,0.0187471,676.46,0.0187379,676.46,0.0181047,676.46,0.023541,676.46,0.0208429,676.46,0.0229877,
669.931,0.0198844,669.931,0.0201921,669.931,0.0194741,669.931,0.0250239,669.931,0.022266,669.931,0.024038,
663.533,0.0172451,663.533,0.0172072,663.533,0.0167991,663.533,0.0221002,663.533,0.0194775,663.533,0.0221655,
656.978,0.016564,656.978,0.0167085,656.978,0.0162324,656.978,0.0217469,656.978,0.0189463,656.978,0.0213123,
650.556,0.0162211,650.556,0.0164916,650.556,0.0160656,650.556,0.0213252,650.556,0.0189464,650.556,0.0206583,
643.976,0.0168455,643.976,0.0169119,643.976,0.0164272,643.976,0.0216914,643.976,0.019725,643.976,0.0218445,
637.529,0.0163941,637.529,0.0163347,637.529,0.0158509,637.529,0.021339,637.529,0.0187828,637.529,0.0231119,
631.071,0.0166663,631.071,0.0162728,631.071,0.0161986,631.071,0.0218054,631.071,0.0188992,631.071,0.0219743,
624.454,0.0164929,624.454,0.0166311,624.454,0.0161632,624.454,0.0220803,624.454,0.019059,624.454,0.0221753,
617.972,0.0166275,617.972,0.0165937,617.972,0.0162979,617.972,0.0220516,617.972,0.0191128,617.972,0.0213974,
611.478,0.0163532,611.478,0.0162184,611.478,0.0159036,611.478,0.0220436,611.478,0.0189583,611.478,0.0214466,
604.973,0.0161035,604.973,0.015845,604.973,0.0154553,604.973,0.0220735,604.973,0.0187738,604.973,0.0211273,
598.457,0.0156311,598.457,0.0153473,598.457,0.0150235,598.457,0.0213335,598.457,0.0185626,598.457,0.0206096,
591.93,0.0151972,591.93,0.0151847,591.93,0.0148232,591.93,0.020968,591.93,0.018202,591.93,0.0200861,
585.54,0.0146207,585.54,0.0145047,585.54,0.0140015,585.54,0.0203199,585.54,0.0178335,585.54,0.0196729,
578.991,0.0138995,578.991,0.0136834,578.991,0.0131638,578.991,0.0195078,578.991,0.0167827,578.991,0.0189872,
572.431,0.0125908,572.431,0.0125392,572.431,0.0119541,572.431,0.0185144,572.431,0.015759,572.431,0.0179114,
566.01,0.0111759,566.01,0.01118166,566.01,0.0106234,566.01,0.0170833,566.01,0.0143551,566.01,0.0163886,
559.429,0.00925754,559.429,0.0092568,559.429,0.00895309,559.429,0.015408,559.429,0.0125164,559.429,0.0141053,
552.988,0.00756928,552.988,0.00753646,552.988,0.00694781,552.988,0.0136278,552.988,0.0107079,552.988,0.0123761,
546.536,0.00573114,546.536,0.00565466,546.536,0.00512903,546.536,0.0119639,546.536,0.00883222,546.536,0.0106706,
539.925,0.00519803,539.925,0.0051809,539.925,0.00475609,539.925,0.0116085,539.925,0.00836165,539.925,0.0101761,
533.454,0.00699068,533.454,0.00683235,533.454,0.00662479,533.454,0.013255,533.454,0.0100406,533.454,0.012115,
526.974,0.0111501,526.974,0.0112886,526.974,0.0109348,526.974,0.017751,526.974,0.0143608,526.974,0.0164127,
520.484,0.0170636,520.484,0.0168828,520.484,0.0173377,520.484,0.0238947,520.484,0.0204231,520.484,0.0224841,
513.985,0.0223459,513.985,0.0223374,513.985,0.022859,513.985,0.0292555,513.985,0.0259723,513.985,0.0280413,
507.477,0.026357,507.477,0.0260413,507.477,0.0267475,507.477,0.0332096,507.477,0.0299435,507.477,0.0316161,
500.96,0.0280322,500.96,0.0278204,500.96,0.028789,500.96,0.0351944,500.96,0.0317581,500.96,0.0334498,
494.434,0.0281119,494.434,0.027618,494.434,0.0282704,494.434,0.0350097,494.434,0.0317217,494.434,0.0335433,
488.051,0.0266831,488.051,0.0264681,488.051,0.0266,488.051,0.0337231,488.051,0.0305209,488.051,0.0328213,
481.508,0.0251342,481.508,0.0248544,481.508,0.024369,481.508,0.0324098,481.508,0.0291731,481.508,0.0312842,
474.956,0.0248776,474.956,0.024702,474.956,0.0239368,474.956,0.0324574,474.956,0.02897,474.956,0.0308792,
468.548,0.028476,468.548,0.0284357,468.548,0.0275206,468.548,0.0359874,468.548,0.0329667,468.548,0.0345213,
461.98,0.0342472,461.98,0.0338824,461.98,0.033114,461.98,0.0418249,461.98,0.0384793,461.98,0.0403319,
455.556,0.0377328,455.556,0.0377442,455.556,0.0365989,455.556,0.0462242,455.556,0.0423653,455.556,0.0438705,
448.971,0.0399253,448.971,0.0396315,448.971,0.0386535,448.971,0.048039,448.971,0.0442124,448.971,0.0462437,
442.532,0.0406089,442.532,0.0405992,442.532,0.0395807,442.532,0.0495192,442.532,0.0451056,442.532,0.0472097,
435.932,0.0403608,435.932,0.0401416,435.932,0.0392614,435.932,0.0495403,435.932,0.0450118,435.932,0.0468953,
429.477,0.0396458,429.477,0.0396488,429.477,0.0388259,429.477,0.0487211,429.477,0.0447943,429.477,0.0463167,
423.016,0.0392021,423.016,0.0392041,423.016,0.0383529,423.016,0.04784,423.016,0.0445563,423.016,0.0457151,
416.547,0.0384285,416.547,0.0381722,416.547,0.0376597,416.547,0.0471639,416.547,0.0441732,416.547,0.0452097,
410.071,0.036995,410.071,0.0369633,410.071,0.0360469,410.071,0.0460241,410.071,0.0428461,410.071,0.0438952,
403.433,0.0353172,403.433,0.0350443,403.433,0.0343386,403.433,0.0441592,403.433,0.0408605,403.433,0.0423358,
396.943,0.0334093,396.943,0.0331169,396.943,0.0325075,396.943,0.0426721,396.943,0.0392605,396.943,0.0409971,
390.447,0.0329791,390.447,0.0325359,390.447,0.0317562,390.447,0.0424507,390.447,0.0391759,390.447,0.0408856,
[...]
X Mode                            Nanometers
Y Mode                            Abs
UV-Vis Scan Rate (nm/min)         300.00
UV-Vis Data Interval (nm)         0.50
UV-Vis Ave. Time (sec)            0.1000
Beam Mode                         Dual Beam
Baseline Correction               Off
Cycle Mode                        Off
Comments
Method Log     :
Method Name    :
Date/Time stamp: 4/20/2024 5:05:46 PM
Method Modifications:
UVVIS SAT Changed: 4/26/2024 1:57:00 PM, Old:0.0125, New:0.1000
Common SAT Changed: 4/26/2024 1:57:00 PM, Old:0.0125, New:0.1000
Common Interval nm Changed: 4/26/2024 1:57:01 PM, Old:     5.00, New:     0.50
End Method Modifications
<Current Wavelength> , 200.5

is_2_5_62uM,
is_2_5_62uM
Collection Time: 4/26/2024 2:10:49 PM
Operator Name  :
Scan Software Version: 3.00(339)
Parameter List :
Instrument                        Cary 50
Instrument Version                3.00
Start (nm)                        800.0
Stop (nm)                         200.0
X Mode                            Nanometers
Y Mode                            Abs
UV-Vis Scan Rate (nm/min)         300.00
UV-Vis Data Interval (nm)         0.50
UV-Vis Ave. Time (sec)            0.1000
Beam Mode                         Dual Beam
Baseline Correction               Off
Cycle Mode                        Off
Comments
Method Log     :
Method Name    :
Date/Time stamp: 4/20/2024 5:05:46 PM
Method Modifications:
UVVIS SAT Changed: 4/26/2024 1:57:00 PM, Old:0.0125, New:0.1000
Common SAT Changed: 4/26/2024 1:57:00 PM, Old:0.0125, New:0.1000
Common Interval nm Changed: 4/26/2024 1:57:01 PM, Old:     5.00, New:     0.50
End Method Modifications
<Current Wavelength> , 200.5

is_2_5_125uM,
is_2_5_125uM
Collection Time: 4/26/2024 2:14:42 PM
Operator Name  :
Scan Software Version: 3.00(339)
Parameter List :
Instrument                        Cary 50
Instrument Version                3.00
Start (nm)                        800.0
Stop (nm)                         200.0
X Mode                            Nanometers
Y Mode                            Abs
UV-Vis Scan Rate (nm/min)         300.00
UV-Vis Data Interval (nm)         0.50
UV-Vis Ave. Time (sec)            0.1000
Beam Mode                         Dual Beam
Baseline Correction               Off
Cycle Mode                        Off
Comments
Method Log     :
Method Name    :
Date/Time stamp: 4/20/2024 5:05:46 PM
Method Modifications:
UVVIS SAT Changed: 4/26/2024 1:57:00 PM, Old:0.0125, New:0.1000
Common SAT Changed: 4/26/2024 1:57:00 PM, Old:0.0125, New:0.1000
Common Interval nm Changed: 4/26/2024 1:57:01 PM, Old:     5.00, New:     0.50
End Method Modifications
<Current Wavelength> , 200.5

is_2_5_250uM1,
is_2_5_250uM1
Collection Time: 4/26/2024 2:17:28 PM
Operator Name  :
Scan Software Version: 3.00(339)
Parameter List :
Instrument                        Cary 50
Instrument Version                3.00
Start (nm)                        800.0
Stop (nm)                         200.0
X Mode                            Nanometers
Y Mode                            Abs
UV-Vis Scan Rate (nm/min)         300.00
UV-Vis Data Interval (nm)         0.50
UV-Vis Ave. Time (sec)            0.1000
Beam Mode                         Dual Beam
Baseline Correction               Off
Cycle Mode                        Off
Comments
Method Log     :
Method Name    :
Date/Time stamp: 4/20/2024 5:05:46 PM
Method Modifications:
UVVIS SAT Changed: 4/26/2024 1:57:00 PM, Old:0.0125, New:0.1000
Common SAT Changed: 4/26/2024 1:57:00 PM, Old:0.0125, New:0.1000
Common Interval nm Changed: 4/26/2024 1:57:01 PM, Old:     5.00, New:     0.50
End Method Modifications
<Current Wavelength> , 200.5

File: is_2_7_allyl_fluoro.csv
is_2_7_7uM,,is_2_7_15uM,,is_2_7_31uM,,is_2_7_62uM,,is_2_7_125uM,,is_2_7_250uM,,
Wavelength (nm),Abs,Wavelength (nm),Abs,Wavelength (nm),Abs,Wavelength (nm),Abs,Wavelength (nm),Abs,Wavelength (nm),Abs,
799.953,0.000261527,799.953,-0.000132309,799.953,0.000266215,799.953,-5.79842e-06,799.953,-0.000433994,799.953,0.000531505,
793.005,-0.000326144,793.005,0.000884803,793.005,-0.00010907,793.005,9.26299e-05,793.005,0.000330534,793.005,0.000201569,
786.038,-0.00169997,786.038,-0.000938646,786.038,-0.000574134,786.038,-0.000854586,786.038,-0.000853811,786.038,-0.00053401,
779.053,-0.00230935,779.053,-0.00151933,779.053,-0.00156313,779.053,-0.0019281,779.053,-0.00196789,779.053,-0.000884864,
772.048,-0.00279562,772.048,-0.00252867,772.048,-0.00210238,772.048,-0.00232042,772.048,-0.00227788,772.048,-0.00181304,
765.025,-0.00363652,765.025,-0.00299316,765.025,-0.00279146,765.025,-0.00290441,765.025,-0.00346881,765.025,-0.00206797,
757.983,-0.00460551,757.983,-0.00393265,757.983,-0.00385676,757.983,-0.00396882,757.983,-0.00414351,757.983,-0.00345186,
751.065,-0.00580392,751.065,-0.00521032,751.065,-0.00489325,751.065,-0.00491107,751.065,-0.00517431,751.065,-0.00446989,
743.987,-0.00778709,743.987,-0.00727451,743.987,-0.0071057,743.987,-0.0072184,743.987,-0.00720623,743.987,-0.00646022,
737.034,-0.00904558,737.034,-0.00906622,737.034,-0.00867731,737.034,-0.00832823,737.034,-0.00875327,737.034,-0.00819585,
730.063,-0.00963766,730.063,-0.0092746,730.063,-0.00912868,730.063,-0.00899421,730.063,-0.00898356,730.063,-0.00850864,
722.933,-0.0143499,722.933,-0.0137312,722.933,-0.0136303,722.933,-0.0133417,722.933,-0.0136178,722.933,-0.0126589,
715.928,-0.014672,715.928,-0.0143051,715.928,-0.0142667,715.928,-0.0138422,715.928,-0.0140967,715.928,-0.0135828,
709.051,-0.0101453,709.051,-0.00981885,709.051,-0.00953496,709.051,-0.00922063,709.051,-0.00964541,709.051,-0.00919164,
702.014,-0.00103891,702.014,-0.00085345,702.014,-0.000491917,702.014,-0.00019141,702.014,-0.000581165,702.014,-0.000154356,
694.961,0.00773499,694.961,0.00865245,694.961,0.00844745,694.961,0.00850178,694.961,0.00820693,694.961,0.00873015,
688.036,0.0134198,688.036,0.0146864,688.036,0.0139091,688.036,0.0143389,688.036,0.0139681,688.036,0.014927,
680.951,0.0167443,680.951,0.0177758,680.951,0.0174831,680.951,0.0174855,680.951,0.0173878,680.951,0.018071,
673.995,0.0183485,673.995,0.0188821,673.995,0.0188924,673.995,0.0194538,673.995,0.0186135,673.995,0.0194987,
667.024,0.017677,667.024,0.0181638,667.024,0.0183443,667.024,0.0183405,667.024,0.0185715,667.024,0.0184806,
660.039,0.0162915,660.039,0.0166297,660.039,0.0171279,660.039,0.0169484,660.039,0.0169191,660.039,0.0174066,
653.039,0.0157742,653.039,0.0162754,653.039,0.0169454,653.039,0.0168018,653.039,0.0165709,653.039,0.0170548,
646.024,0.0155948,646.024,0.0164799,646.024,0.0162164,646.024,0.0169808,646.024,0.0161919,646.024,0.0169621,
638.995,0.0157851,638.995,0.0161472,638.995,0.0162047,638.995,0.0167569,638.995,0.0164637,638.995,0.0166157,
631.952,0.0156814,631.952,0.016215,631.952,0.0165356,631.952,0.0168618,631.952,0.0163338,631.952,0.0167199,
625.042,0.0158665,625.042,0.0167663,625.042,0.0168146,625.042,0.0172306,625.042,0.0167744,625.042,0.0172581,
617.972,0.0158202,617.972,0.0167988,617.972,0.0169559,617.972,0.0169244,617.972,0.0168385,617.972,0.0172204,
611.035,0.0153242,611.035,0.0160221,611.035,0.0163351,611.035,0.0166775,611.035,0.0163147,611.035,0.0168832,
603.937,0.0152083,603.937,0.0158579,603.937,0.0162121,603.937,0.0165172,603.937,0.0160712,603.937,0.0167645,
596.974,0.0149642,596.974,0.0154868,596.974,0.01593,596.974,0.0162458,596.974,0.0157658,596.974,0.0161643,
589.999,0.0144767,589.999,0.0151379,589.999,0.0151822,589.999,0.0154278,589.999,0.0152126,589.999,0.0159137,
583.011,0.0133991,583.011,0.0141177,583.011,0.0144976,583.011,0.0147635,583.011,0.014269,583.011,0.0150688,
576.01,0.0124202,576.01,0.0130238,576.01,0.0133481,576.01,0.0136921,576.01,0.0135265,576.01,0.0139983,
568.998,0.0109784,568.998,0.0118609,568.998,0.0121786,568.998,0.0121548,568.998,0.0119989,568.998,0.0124948,
561.973,0.00906053,561.973,0.00998013,561.973,0.0101377,561.973,0.0102802,561.973,0.0100379,561.973,0.0106769,
554.936,0.00705756,554.936,0.00786134,554.936,0.00813179,554.936,0.0083919,554.936,0.0080577,554.936,0.00857852,
548.038,0.00500178,548.038,0.00567401,548.038,0.00611657,548.038,0.00628901,548.038,0.0061705,548.038,0.00654269,
540.978,0.00406755,540.978,0.00506096,540.978,0.00532555,540.978,0.00552014,540.978,0.00545026,540.978,0.00580126,
534.057,0.00527755,534.057,0.00605462,534.057,0.00645104,534.057,0.0065568,534.057,0.00616076,534.057,0.00673401,
526.974,0.00963757,526.974,0.0105349,526.974,0.0110077,526.974,0.0111856,526.974,0.0110173,526.974,0.0114104,
520.031,0.0157753,520.031,0.0169924,520.031,0.0171419,520.031,0.0171238,520.031,0.0171196,520.031,0.0173789,
512.927,0.0215888,512.927,0.0227423,512.927,0.0229157,512.927,0.0229417,512.927,0.022869,512.927,0.02372442,
505.962,0.0250479,505.962,0.0261335,505.962,0.026529,505.962,0.0268355,505.962,0.0265668,505.962,0.0271354,
498.988,0.026568,498.988,0.0278105,498.988,0.0281217,498.988,0.0279943,498.988,0.0277815,498.988,0.0286123,
492.003,0.0260213,492.003,0.0272112,492.003,0.0273391,492.003,0.0276929,492.003,0.0274649,492.003,0.0281389,
485.009,0.0243028,485.009,0.0253086,485.009,0.025563,485.009,0.0258,485.009,0.0256343,485.009,0.0260928,
478.004,0.0224217,478.004,0.0240932,478.004,0.0241829,478.004,0.024478,478.004,0.0239586,478.004,0.0247514,
470.99,0.0244926,470.99,0.0262293,470.99,0.0262764,470.99,0.0265073,470.99,0.0259624,470.99,0.0272138,
463.966,0.0304565,463.966,0.0316476,463.966,0.032303,463.966,0.0323278,463.966,0.0320316,463.966,0.03308,
456.933,0.0350983,456.933,0.0367546,456.933,0.0369672,456.933,0.0371082,456.933,0.036975,456.933,0.0376762,
450.044,0.03746,450.044,0.0389121,450.044,0.0395268,450.044,0.0395394,450.044,0.0391956,450.044,0.0401101,
442.992,0.0388924,442.992,0.0400807,442.992,0.040637,442.992,0.0408378,442.992,0.040501,442.992,0.0411085,
435.932,0.0385749,435.932,0.0398855,435.932,0.0403112,435.932,0.0403935,435.932,0.0401465,435.932,0.0410401,
429.016,0.0380707,429.016,0.03934,429.016,0.039749,429.016,0.0397071,429.016,0.0396145,429.016,0.0403212,
421.938,0.0374081,421.938,0.0387688,421.938,0.0393463,421.938,0.0392193,421.938,0.0391933,421.938,0.0398753,
415.005,0.0362084,415.005,0.0376628,415.005,0.0384621,415.005,0.0382379,415.005,0.0380308,415.005,0.0390498,
408.065,0.0345399,408.065,0.0360568,408.065,0.0366572,408.065,0.0366218,408.065,0.0364129,408.065,0.0374886,
400.962,0.0320784,400.962,0.0335352,400.962,0.0345052,400.962,0.0342317,400.962,0.0344493,400.962,0.0354756,
394.005,0.0309255,394.005,0.0325452,394.005,0.0333345,394.005,0.0333118,394.005,0.0332217,394.005,0.0342254,
387.041,0.0305692,387.041,0.0325215,387.041,0.0333465,387.041,0.0332682,387.041,0.0332009,387.041,0.0340894,
380.069,0.0324647,380.069,0.0344201,380.069,0.0351987,380.069,0.0350551,380.069,0.0349717,380.069,0.0363571,
372.935,0.0366224,372.935,0.0388306,372.935,0.0393974,372.935,0.0396155,372.935,0.0395069,372.935,0.0407762,
365.948,0.0413677,365.948,0.0435153,365.948,0.0445502,365.948,0.0444608,365.948,0.0444277,365.948,0.045705,
[...]
X Mode                            Nanometers
Y Mode                            Abs
UV-Vis Scan Rate (nm/min)         300.00
UV-Vis Data Interval (nm)         0.50
UV-Vis Ave. Time (sec)            0.1000
Beam Mode                         Dual Beam
Baseline Correction               Off
Cycle Mode                        Off
Comments
Method Log     :
Method Name    :
Date/Time stamp: 4/20/2024 5:05:46 PM
Method Modifications:
UVVIS SAT Changed: 4/20/2024 5:05:56 PM, Old:0.0125, New:0.1000
Common SAT Changed: 4/20/2024 5:05:56 PM, Old:0.0125, New:0.1000
Common Interval nm Changed: 4/20/2024 5:06:01 PM, Old:     5.00, New:     0.50
End Method Modifications
<Current Wavelength> , 200.5

is_2_7_62uM,
is_2_7_62uM
Collection Time: 4/20/2024 5:21:37 PM
Operator Name  :
Scan Software Version: 3.00(339)
Parameter List :
Instrument                        Cary 50
Instrument Version                3.00
Start (nm)                        800.0
Stop (nm)                         200.0
X Mode                            Nanometers
Y Mode                            Abs
UV-Vis Scan Rate (nm/min)         300.00
UV-Vis Data Interval (nm)         0.50
UV-Vis Ave. Time (sec)            0.1000
Beam Mode                         Dual Beam
Baseline Correction               Off
Cycle Mode                        Off
Comments
Method Log     :
Method Name    :
Date/Time stamp: 4/20/2024 5:05:46 PM
Method Modifications:
UVVIS SAT Changed: 4/20/2024 5:05:56 PM, Old:0.0125, New:0.1000
Common SAT Changed: 4/20/2024 5:05:56 PM, Old:0.0125, New:0.1000
Common Interval nm Changed: 4/20/2024 5:06:01 PM, Old:     5.00, New:     0.50
End Method Modifications
<Current Wavelength> , 200.5

is_2_7_125uM,
is_2_7_125uM
Collection Time: 4/20/2024 5:25:01 PM
Operator Name  :
Scan Software Version: 3.00(339)
Parameter List :
Instrument                        Cary 50
Instrument Version                3.00
Start (nm)                        800.0
Stop (nm)                         200.0
X Mode                            Nanometers
Y Mode                            Abs
UV-Vis Scan Rate (nm/min)         300.00
UV-Vis Data Interval (nm)         0.50
UV-Vis Ave. Time (sec)            0.1000
Beam Mode                         Dual Beam
Baseline Correction               Off
Cycle Mode                        Off
Comments
Method Log     :
Method Name    :
Date/Time stamp: 4/20/2024 5:05:46 PM
Method Modifications:
UVVIS SAT Changed: 4/20/2024 5:05:56 PM, Old:0.0125, New:0.1000
Common SAT Changed: 4/20/2024 5:05:56 PM, Old:0.0125, New:0.1000
Common Interval nm Changed: 4/20/2024 5:06:01 PM, Old:     5.00, New:     0.50
End Method Modifications
<Current Wavelength> , 200.5

is_2_7_250uM,
is_2_7_250uM
Collection Time: 4/20/2024 5:28:25 PM
Operator Name  :
Scan Software Version: 3.00(339)
Parameter List :
Instrument                        Cary 50
Instrument Version                3.00
Start (nm)                        800.0
Stop (nm)                         200.0
X Mode                            Nanometers
Y Mode                            Abs
UV-Vis Scan Rate (nm/min)         300.00
UV-Vis Data Interval (nm)         0.50
UV-Vis Ave. Time (sec)            0.1000
Beam Mode                         Dual Beam
Baseline Correction               Off
Cycle Mode                        Off
Comments
Method Log     :
Method Name    :
Date/Time stamp: 4/20/2024 5:05:46 PM
Method Modifications:
UVVIS SAT Changed: 4/20/2024 5:05:56 PM, Old:0.0125, New:0.1000
Common SAT Changed: 4/20/2024 5:05:56 PM, Old:0.0125, New:0.1000
Common Interval nm Changed: 4/20/2024 5:06:01 PM, Old:     5.00, New:     0.50
End Method Modifications
<Current Wavelength> , 200.5