Folder: silicates_github/silicates_UV_vis/Allylsilicates_plot (part 5)

File: mbg_3_138_allylcatecholsilicate.csv
mbg_3_138_250uM,,mbg_3_138_7uM,,mbg_3_138_15uM,,mbg_3_138_31uM,,mbg_3_138_62uM,,mbg_3_138_125uM,,mbg_3_138_250uM,,
Wavelength (nm),Abs,Wavelength (nm),Abs,Wavelength (nm),Abs,Wavelength (nm),Abs,Wavelength (nm),Abs,Wavelength (nm),Abs,Wavelength (nm),Abs,
799.953,0.000936658,799.953,-0.000297276,799.953,-0.000202019,799.953,0.000261087,799.953,0.000135172,799.953,-0.000164862,799.953,0.000936658,
792.031,-0.000629608,792.031,-0.00138275,792.031,-0.00166268,792.031,-0.00110315,792.031,-0.0016161,792.031,-0.00131219,792.031,-0.000629608,
783.945,-0.00157907,783.945,-0.00223606,783.945,-0.00216833,783.945,-0.00211114,783.945,-0.00184764,783.945,-0.00235137,783.945,-0.00157907,
775.973,-0.00170703,775.973,-0.00337327,775.973,-0.00251004,775.973,-0.00299511,775.973,-0.00287257,775.973,-0.00311551,775.973,-0.00170703,
767.977,-0.0023369,767.977,-0.00299311,767.977,-0.00287854,767.977,-0.00360042,767.977,-0.00338344,767.977,-0.00338329,767.977,-0.0023369,
759.957,-0.00182676,759.957,-0.00321311,759.957,-0.00300493,759.957,-0.00293387,759.957,-0.00337954,759.957,-0.00287375,759.957,-0.00182676,
752.054,-0.00333494,752.054,-0.00417823,752.054,-0.00381289,752.054,-0.00437278,752.054,-0.00436817,752.054,-0.00424088,752.054,-0.00333494,
743.987,-0.00643706,743.987,-0.00767474,743.987,-0.00783601,743.987,-0.00740335,743.987,-0.00776314,743.987,-0.00753667,743.987,-0.00643706,
736.039,-0.0111133,736.039,-0.012149,736.039,-0.0118703,736.039,-0.0118795,736.039,-0.0118237,736.039,-0.0120484,736.039,-0.0111133,
728.068,-0.0154363,728.068,-0.0172228,728.068,-0.0169182,728.068,-0.0166595,728.068,-0.0167035,728.068,-0.0168212,728.068,-0.0154363,
719.933,-0.0182462,719.933,-0.0192637,719.933,-0.0192175,719.933,-0.0190125,719.933,-0.0195712,719.933,-0.0193308,719.933,-0.0182462,
712.062,-0.0160131,712.062,-0.0172632,712.062,-0.0171872,712.062,-0.0171685,712.062,-0.0173029,712.062,-0.0169058,712.062,-0.0160131,
704.026,-0.0075034,704.026,-0.00850219,704.026,-0.00811135,704.026,-0.00860894,704.026,-0.00837805,704.026,-0.00832843,704.026,-0.0075034,
695.969,0.00359066,695.969,0.00257184,695.969,0.00305947,695.969,0.00228432,695.969,0.00252742,695.969,0.00234928,695.969,0.00359066,
688.036,0.00967703,688.036,0.00835392,688.036,0.00901906,688.036,0.00872851,688.036,0.00863624,688.036,0.0090569,688.036,0.00967703,
679.937,0.0134064,679.937,0.0118957,679.937,0.0122455,679.937,0.0121031,679.937,0.0121553,679.937,0.0123759,679.937,0.0134064,
671.963,0.0149192,671.963,0.0135305,671.963,0.0135847,671.963,0.0136869,671.963,0.0138879,671.963,0.0137056,671.963,0.0149192,
663.97,0.0127594,663.97,0.0114525,663.97,0.0116416,663.97,0.0116463,663.97,0.0115398,663.97,0.0118676,663.97,0.0127594,
655.957,0.0124341,655.957,0.0110516,655.957,0.0110899,655.957,0.0107704,655.957,0.0107375,655.957,0.0110334,655.957,0.0124341,
648.072,0.012676,648.072,0.0112774,648.072,0.0112689,648.072,0.0113332,648.072,0.0111297,648.072,0.0114858,648.072,0.012676,
640.021,0.0119455,640.021,0.0109133,640.021,0.010965,640.021,0.010744,640.021,0.0109989,640.021,0.0108419,640.021,0.0119455,
631.952,0.011592,631.952,0.0105944,631.952,0.0106786,631.952,0.0106856,631.952,0.0106798,631.952,0.0111011,631.952,0.011592,
624.012,0.0113344,624.012,0.0103701,624.012,0.0106879,624.012,0.0105177,624.012,0.0103918,624.012,0.0107672,624.012,0.0113344,
616.054,0.011231,616.054,0.00986013,616.054,0.0100759,616.054,0.0101216,616.054,0.0101478,616.054,0.0105844,616.054,0.011231,
607.931,0.010829,607.931,0.00965332,607.931,0.00971073,607.931,0.00948316,607.931,0.0100037,607.931,0.0101441,607.931,0.010829,
599.939,0.0103021,599.939,0.00932101,599.939,0.00923895,599.939,0.00902233,599.939,0.00955961,599.939,0.00934807,599.939,0.0103021,
591.93,0.00971851,591.93,0.00843782,591.93,0.00848652,591.93,0.00865364,591.93,0.0087694,591.93,0.00864709,591.93,0.00971851,
584.052,0.00878493,584.052,0.00758387,584.052,0.00779621,584.052,0.00770248,584.052,0.00769347,584.052,0.00793138,584.052,0.00878493,
576.01,0.00755611,576.01,0.0063121,576.01,0.00661404,576.01,0.00652245,576.01,0.0064818,576.01,0.00674892,576.01,0.00755611,
567.952,0.00577917,567.952,0.0046144,567.952,0.00462921,567.952,0.00482699,567.952,0.00476242,567.952,0.00466437,567.952,0.00577917,
560.028,0.00360512,560.028,0.00249841,560.028,0.00240436,560.028,0.00250339,560.028,0.00257798,560.028,0.00264231,560.028,0.00360512,
551.938,0.00110451,551.938,-8.77446e-05,551.938,3.96591e-05,551.938,1.94145e-06,551.938,0.000213405,551.938,0.00038893,551.938,0.00110451,
543.983,-0.000945671,543.983,-0.00215256,543.983,-0.00202247,543.983,-0.00202849,543.983,-0.002027,543.983,-0.00196098,543.983,-0.000945671,
536.014,-0.000433529,536.014,-0.00173797,536.014,-0.00149322,536.014,-0.0015298,536.014,-0.00136788,536.014,-0.00143012,536.014,-0.000433529,
528.03,0.00379093,528.03,0.00244223,528.03,0.00257624,528.03,0.00264653,528.03,0.0025484,528.03,0.0030662,528.03,0.00379093,
520.031,0.010817,520.031,0.0097511,520.031,0.00960991,520.031,0.00953425,520.031,0.00963625,520.031,0.00972868,520.031,0.010817,
512.019,0.0169807,512.019,0.0156238,512.019,0.0161195,512.019,0.0162594,512.019,0.0161012,512.019,0.0160736,512.019,0.0169807,
503.992,0.0204825,503.992,0.0194292,503.992,0.0193652,503.992,0.0193952,503.992,0.0192794,503.992,0.0195787,503.992,0.0204825,
495.953,0.0212313,495.953,0.0199585,495.953,0.0200558,495.953,0.0201104,495.953,0.0204408,495.953,0.0201866,495.953,0.0212313,
488.051,0.0197419,488.051,0.0185049,488.051,0.0185054,488.051,0.0185003,488.051,0.0184253,488.051,0.0186045,488.051,0.0197419,
479.985,0.0175719,479.985,0.0158682,479.985,0.0161905,479.985,0.0163045,479.985,0.0163199,479.985,0.0165873,479.985,0.0175719,
472.058,0.0188081,472.058,0.0174542,472.058,0.0174042,472.058,0.0176535,472.058,0.017551,472.058,0.0178169,472.058,0.0188081,
463.966,0.0252334,463.966,0.0234679,463.966,0.0236261,463.966,0.0237408,463.966,0.0237444,463.966,0.0240564,463.966,0.0252334,
456.015,0.0301631,456.015,0.0286153,456.015,0.0287688,456.015,0.0288856,456.015,0.0290965,456.015,0.0290891,456.015,0.0301631,
448.052,0.0326644,448.052,0.0309225,448.052,0.0312217,448.052,0.031369,448.052,0.0311614,448.052,0.0312729,448.052,0.0326644,
439.923,0.0336053,439.923,0.0318146,439.923,0.0320368,439.923,0.0320551,439.923,0.0322973,439.923,0.032303,439.923,0.0336053,
431.937,0.0326664,431.937,0.0308142,431.937,0.0310249,431.937,0.031124,431.937,0.0311673,431.937,0.0313356,431.937,0.0326664,
423.939,0.031897,423.939,0.0303787,423.939,0.0301367,423.939,0.0300852,423.939,0.0301921,423.939,0.0303431,423.939,0.031897,
415.93,0.03102,415.93,0.0288966,415.93,0.0289545,415.93,0.0293337,415.93,0.0294446,415.93,0.0295165,415.93,0.03102,
408.065,0.0290721,408.065,0.0266777,408.065,0.0269906,408.065,0.0266673,408.065,0.0273167,408.065,0.0272845,408.065,0.0290721,
400.035,0.0269164,400.035,0.0243077,400.035,0.024652,400.035,0.0245414,400.035,0.0247123,400.035,0.0252089,400.035,0.0269164,
391.994,0.0257118,391.994,0.0231337,391.994,0.0231363,391.994,0.0230273,391.994,0.0234213,391.994,0.0240056,391.994,0.0257118,
383.944,0.0269567,383.944,0.0237529,383.944,0.024008,383.944,0.0239217,383.944,0.0244061,383.944,0.0248769,383.944,0.0269567,
376.038,0.0308038,376.038,0.0272263,376.038,0.0272227,376.038,0.027792,376.038,0.0281669,376.038,0.0286168,376.038,0.0308038,
[...]
X Mode                            Nanometers
Y Mode                            Abs
UV-Vis Scan Rate (nm/min)         300.00
UV-Vis Data Interval (nm)         0.50
UV-Vis Ave. Time (sec)            0.1000
Beam Mode                         Dual Beam
Baseline Correction               Off
Cycle Mode                        Off
Comments
Method Log     :
Method Name    :
Date/Time stamp: 3/8/2024 4:34:39 PM
Method Modifications:
UVVIS SAT Changed: 3/11/2024 5:07:04 PM, Old:0.0125, New:0.1000
Common SAT Changed: 3/11/2024 5:07:04 PM, Old:0.0125, New:0.1000
Common Interval nm Changed: 3/11/2024 5:07:05 PM, Old:     5.00, New:     0.50
End Method Modifications
<Current Wavelength> , 200.5

mbg_3_138_62uM,
mbg_3_138_62uM
Collection Time: 3/11/2024 5:22:45 PM
Operator Name  :
Scan Software Version: 3.00(339)
Parameter List :
Instrument                        Cary 50
Instrument Version                3.00
Start (nm)                        800.0
Stop (nm)                         200.0
X Mode                            Nanometers
Y Mode                            Abs
UV-Vis Scan Rate (nm/min)         300.00
UV-Vis Data Interval (nm)         0.50
UV-Vis Ave. Time (sec)            0.1000
Beam Mode                         Dual Beam
Baseline Correction               Off
Cycle Mode                        Off
Comments
Method Log     :
Method Name    :
Date/Time stamp: 3/8/2024 4:34:39 PM
Method Modifications:
UVVIS SAT Changed: 3/11/2024 5:07:04 PM, Old:0.0125, New:0.1000
Common SAT Changed: 3/11/2024 5:07:04 PM, Old:0.0125, New:0.1000
Common Interval nm Changed: 3/11/2024 5:07:05 PM, Old:     5.00, New:     0.50
End Method Modifications
<Current Wavelength> , 200.5

mbg_3_138_125uM,
mbg_3_138_125uM
Collection Time: 3/11/2024 5:27:58 PM
Operator Name  :
Scan Software Version: 3.00(339)
Parameter List :
Instrument                        Cary 50
Instrument Version                3.00
Start (nm)                        800.0
Stop (nm)                         200.0
X Mode                            Nanometers
Y Mode                            Abs
UV-Vis Scan Rate (nm/min)         300.00
UV-Vis Data Interval (nm)         0.50
UV-Vis Ave. Time (sec)            0.1000
Beam Mode                         Dual Beam
Baseline Correction               Off
Cycle Mode                        Off
Comments
Method Log     :
Method Name    :
Date/Time stamp: 3/8/2024 4:34:39 PM
Method Modifications:
UVVIS SAT Changed: 3/11/2024 5:07:04 PM, Old:0.0125, New:0.1000
Common SAT Changed: 3/11/2024 5:07:04 PM, Old:0.0125, New:0.1000
Common Interval nm Changed: 3/11/2024 5:07:05 PM, Old:     5.00, New:     0.50
End Method Modifications
<Current Wavelength> , 200.5

mbg_3_138_250uM,
mbg_3_138_250uM
Collection Time: 3/11/2024 5:31:41 PM
Operator Name  :
Scan Software Version: 3.00(339)
Parameter List :
Instrument                        Cary 50
Instrument Version                3.00
Start (nm)                        800.0
Stop (nm)                         200.0
X Mode                            Nanometers
Y Mode                            Abs
UV-Vis Scan Rate (nm/min)         300.00
UV-Vis Data Interval (nm)         0.50
UV-Vis Ave. Time (sec)            0.1000
Beam Mode                         Dual Beam
Baseline Correction               Off
Cycle Mode                        Off
Comments
Method Log     :
Method Name    :
Date/Time stamp: 3/8/2024 4:34:39 PM
Method Modifications:
UVVIS SAT Changed: 3/11/2024 5:07:04 PM, Old:0.0125, New:0.1000
Common SAT Changed: 3/11/2024 5:07:04 PM, Old:0.0125, New:0.1000
Common Interval nm Changed: 3/11/2024 5:07:05 PM, Old:     5.00, New:     0.50
End Method Modifications
<Current Wavelength> , 200.5

File: mbg_3_146_allylmethylcoumarine.csv
mbg_3_146_7uM,,mbg_3_146_15uM,,mbg_3_146_31uM,,mbg_3_146_62uM,,mbg_3_146_125uM,,mbg_3_146_250uM,
Wavelength (nm),Abs,Wavelength (nm),Abs,Wavelength (nm),Abs,Wavelength (nm),Abs,Wavelength (nm),Abs,Wavelength (nm),Abs
799.953,-0.000788702,799.953,-0.000237258,799.953,0.000326597,799.953,0.000167773,799.953,-0.000232497,799.953,0.000939174
793.562,-0.000957398,793.562,-0.001271674,793.562,-0.001146941,793.562,-0.001132896,793.562,-0.000838982,793.562,-0.000481212
787.015,-0.002890005,787.015,-0.002516679,787.015,-0.002174972,787.015,-0.00283878,787.015,-0.002884297,787.015,-0.001543371
780.451,-0.002271548,780.451,-0.002499539,780.451,-0.002095582,780.451,-0.002869433,780.451,-0.002338907,780.451,-0.002175332
774.011,-0.002897565,774.011,-0.002577876,774.011,-0.002693092,774.011,-0.003248469,774.011,-0.002562591,774.011,-0.001818353
767.555,-0.002987195,767.555,-0.002845826,767.555,-0.003079787,767.555,-0.003190604,767.555,-0.002982721,767.555,-0.001989329
760.943,-0.002724271,760.943,-0.003256537,760.943,-0.00272103,760.943,-0.002563054,760.943,-0.002737596,760.943,-0.001849904
754.455,-0.003880418,754.455,-0.003749708,754.455,-0.00377147,754.455,-0.003184334,754.455,-0.003540501,754.455,-0.003084825
747.953,-0.006227973,747.953,-0.006029556,747.953,-0.00588948,747.953,-0.005486263,747.953,-0.006557635,747.953,-0.005105749
741.435,-0.008797867,741.435,-0.00892372,741.435,-0.008596001,741.435,-0.008293739,741.435,-0.008941166,741.435,-0.007711621
735.044,-0.0126523,735.044,-0.0126829,735.044,-0.0126904,735.044,-0.011961,735.044,-0.01304822,735.044,-0.0120781
728.496,-0.0164382,728.496,-0.0164098,728.496,-0.0165344,728.496,-0.01624787,728.496,-0.016682,728.496,-0.0155658
721.933,-0.01894393,721.933,-0.0190694,721.933,-0.0188147,721.933,-0.01897773,721.933,-0.0189425,721.933,-0.018212
715.499,-0.0188704,715.499,-0.0183391,715.499,-0.0184253,715.499,-0.0186444,715.499,-0.0178609,715.499,-0.0179375
709.051,-0.0140026,709.051,-0.0138871,709.051,-0.0138178,709.051,-0.0139593,709.051,-0.01299034,709.051,-0.0131077
702.445,-0.005968282,702.445,-0.005692543,702.445,-0.005490302,702.445,-0.005419698,702.445,-0.00490175,702.445,-0.004858236
695.969,0.002485603,695.969,0.003160944,695.969,0.003098863,695.969,0.003154529,695.969,0.00298002,695.969,0.003907331
689.479,0.007825887,689.479,0.008149615,689.479,0.00832054,689.479,0.008446766,689.479,0.008212078,689.479,0.009194608
682.976,0.0111868,682.976,0.0115676,682.976,0.0118186,682.976,0.0117112,682.976,0.0114434,682.976,0.0122648
676.46,0.013317,676.46,0.0133964,676.46,0.0134988,676.46,0.0133351,676.46,0.0132555,676.46,0.0144212
669.931,0.0137257,669.931,0.01427948,669.931,0.0143208,669.931,0.0139068,669.931,0.0141606,669.931,0.015285
663.533,0.0118725,663.533,0.0118597,663.533,0.01201,663.533,0.01179741,663.533,0.0118282,663.533,0.0128829
656.978,0.0110716,656.978,0.0113318,656.978,0.0116041,656.978,0.0111679,656.978,0.0121156,656.978,0.0123803
650.556,0.0111851,650.556,0.0110256,650.556,0.0114229,650.556,0.0117655,650.556,0.0132188,650.556,0.0124512
643.976,0.0109698,643.976,0.0113874,643.976,0.0116146,643.976,0.0111726,643.976,0.0139748,643.976,0.0122591
637.529,0.0111103,637.529,0.0114054,637.529,0.0117191,637.529,0.0115872,637.529,0.0140461,637.529,0.0120282
631.071,0.0110944,631.071,0.011094,631.071,0.0116281,631.071,0.010948,631.071,0.0113035,631.071,0.0122047
624.454,0.0107364,624.454,0.0111196,624.454,0.01095279,624.454,0.0109045,624.454,0.0108357,624.454,0.01208794
617.972,0.01033622,617.972,0.0108172,617.972,0.01077313,617.972,0.0104505,617.972,0.0111294,617.972,0.0117543
611.478,0.010214,611.478,0.010477,611.478,0.0107675,611.478,0.0102285,611.478,0.0103874,611.478,0.0111661
604.973,0.009862569,604.973,0.0101402,604.973,0.0104849,604.973,0.009984423,604.973,0.0102161,604.973,0.0112142
598.457,0.009622537,598.457,0.009711709,598.457,0.009883013,598.457,0.009413321,598.457,0.009641036,598.457,0.0106825
591.93,0.009025929,591.93,0.009082332,591.93,0.00944877,591.93,0.009249316,591.93,0.009250903,591.93,0.0102017
585.54,0.008695262,585.54,0.008512758,585.54,0.008720034,585.54,0.008619314,585.54,0.008742141,585.54,0.009855922
578.991,0.008068964,578.991,0.007461422,578.991,0.007653285,578.991,0.007286254,578.991,0.007466215,578.991,0.00879444
572.431,0.00726588,572.431,0.006068481,572.431,0.006425262,572.431,0.006139283,572.431,0.006339546,572.431,0.007617719
566.01,0.005844362,566.01,0.004785508,566.01,0.004960822,566.01,0.004770171,566.01,0.004920502,566.01,0.006141147
559.429,0.004021647,559.429,0.003034576,559.429,0.002984477,559.429,0.002996311,559.429,0.002978587,559.429,0.004525612
552.988,0.002004309,552.988,0.000894323,552.988,0.001137806,552.988,0.000932299,552.988,0.001066049,552.988,0.002487217
546.536,-6.81E-05,546.536,-0.001012048,546.536,-0.00090894,546.536,-0.001059462,546.536,-0.000897109,546.536,0.000568414
539.925,-0.000817899,539.925,-0.001603158,539.925,-0.001308685,539.925,-0.001576541,539.925,-0.00134244,539.925,-3.68E-05
533.454,0.000419322,533.454,-4.81E-06,533.454,0.000400407,533.454,0.000255259,533.454,0.000288155,533.454,0.001706126
526.974,0.004045893,526.974,0.004223445,526.974,0.004572121,526.974,0.004208415,526.974,0.004487345,526.974,0.005869104
520.484,0.009929147,520.484,0.0101519,520.484,0.0105746,520.484,0.0101954,520.484,0.0106176,520.484,0.0120438
513.985,0.015232,513.985,0.0153862,513.985,0.0155174,513.985,0.0153138,513.985,0.0158173,513.985,0.0173962
507.477,0.0188401,507.477,0.019084,507.477,0.0193496,507.477,0.0188175,507.477,0.0194036,507.477,0.0210518
500.96,0.0204611,500.96,0.0206255,500.96,0.0210183,500.96,0.0209064,500.96,0.0212013,500.96,0.022955
494.434,0.0202603,494.434,0.020674,494.434,0.0208902,494.434,0.0205768,494.434,0.0211017,494.434,0.0232778
488.051,0.0189569,488.051,0.0190605,488.051,0.0195929,488.051,0.0191163,488.051,0.0198433,488.051,0.0230642
481.508,0.0174671,481.508,0.01760713,481.508,0.0178503,481.508,0.0176359,481.508,0.0183056,481.508,0.0221914
474.956,0.0172579,474.956,0.0173553,474.956,0.0177329,474.956,0.0176817,474.956,0.018501,474.956,0.0224325
468.548,0.0210072,468.548,0.0211508,468.548,0.02176699,468.548,0.0215351,468.548,0.0227283,468.548,0.02722354
461.98,0.0264235,461.98,0.0266089,461.98,0.02746035,461.98,0.02728688,461.98,0.0293572,461.98,0.0356877
455.556,0.0300898,455.556,0.02997989,455.556,0.0313553,455.556,0.0320497,455.556,0.0354338,455.556,0.0453018
448.971,0.0320934,448.971,0.0323769,448.971,0.03389347,448.971,0.0356589,448.971,0.0415693,448.971,0.057808
442.532,0.0328503,442.532,0.0338209,442.532,0.0358984,442.532,0.0393461,442.532,0.0497008,442.532,0.0780791
435.932,0.0329825,435.932,0.0341251,435.932,0.0374751,435.932,0.0439981,435.932,0.0607844,435.932,0.107728
429.477,0.0330097,429.477,0.0342372,429.477,0.0395038,429.477,0.0499675,429.477,0.0776159,429.477,0.153655
423.016,0.0327084,423.016,0.0349036,423.016,0.0428015,423.016,0.0596687,423.016,0.103356,423.016,0.223257
416.547,0.0332336,416.547,0.0362227,416.547,0.04696238,416.547,0.073254,416.547,0.13816,416.547,0.315984
410.071,0.0332722,410.071,0.0375302,410.071,0.0522832,410.071,0.0905323,410.071,0.183799,410.071,0.437881
403.433,0.0330476,403.433,0.038856,403.433,0.0586237,403.433,0.111672,403.433,0.240071,403.433,0.589772
[...]
,,,,,,,,,,Instrument Version                3.00,
,,,,,,,,,,Start (nm)                        800.0,
,,,,,,,,,,Stop (nm)                         200.0,
,,,,,,,,,,X Mode                            Nanometers,
,,,,,,,,,,Y Mode                            Abs,
,,,,,,,,,,UV-Vis Scan Rate (nm/min)         300.00,
,,,,,,,,,,UV-Vis Data Interval (nm)         0.50,
,,,,,,,,,,UV-Vis Ave. Time (sec)            0.1000,
,,,,,,,,,,Beam Mode                         Dual Beam,
,,,,,,,,,,Baseline Correction               Off,
,,,,,,,,,,Cycle Mode                        Off,
,,,,,,,,,,Comments,
,,,,,,,,,,Method Log     :,
,,,,,,,,,,Method Name    :,
,,,,,,,,,,Date/Time stamp: 3/8/2024 4:34:39 PM,
,,,,,,,,,,Method Modifications:,
 New:0.1000,,,,,,,,,,UVVIS SAT Changed: 3/14/2024 3:37:37 PM, Old:0.0125
 New:0.1000,,,,,,,,,,Common SAT Changed: 3/14/2024 3:37:37 PM, Old:0.0125
 New:     0.50,,,,,,,,,,Common Interval nm Changed: 3/14/2024 3:37:38 PM, Old:     5.00
,,,,,,,,,,End Method Modifications,
,,,,,,,,,,<Current Wavelength> ,200.5
,,,,,,,,,,,
,,,,,,,,,,mbg_3_146_62uM,
,,,,,,,,,,mbg_3_146_62uM,
,,,,,,,,,,Collection Time: 3/14/2024 3:48:25 PM,
,,,,,,,,,,Operator Name  :,
,,,,,,,,,,Scan Software Version: 3.00(339),
,,,,,,,,,,Parameter List :,
,,,,,,,,,,Instrument                        Cary 50,
,,,,,,,,,,Instrument Version                3.00,
,,,,,,,,,,Start (nm)                        800.0,
,,,,,,,,,,Stop (nm)                         200.0,
,,,,,,,,,,X Mode                            Nanometers,
,,,,,,,,,,Y Mode                            Abs,
,,,,,,,,,,UV-Vis Scan Rate (nm/min)         300.00,
,,,,,,,,,,UV-Vis Data Interval (nm)         0.50,
,,,,,,,,,,UV-Vis Ave. Time (sec)            0.1000,
,,,,,,,,,,Beam Mode                         Dual Beam,
,,,,,,,,,,Baseline Correction               Off,
,,,,,,,,,,Cycle Mode                        Off,
,,,,,,,,,,Comments,
,,,,,,,,,,Method Log     :,
,,,,,,,,,,Method Name    :,
,,,,,,,,,,Date/Time stamp: 3/8/2024 4:34:39 PM,
,,,,,,,,,,Method Modifications:,
 New:0.1000,,,,,,,,,,UVVIS SAT Changed: 3/14/2024 3:37:37 PM, Old:0.0125
 New:0.1000,,,,,,,,,,Common SAT Changed: 3/14/2024 3:37:37 PM, Old:0.0125
 New:     0.50,,,,,,,,,,Common Interval nm Changed: 3/14/2024 3:37:38 PM, Old:     5.00
,,,,,,,,,,End Method Modifications,
,,,,,,,,,,<Current Wavelength> ,200.5
,,,,,,,,,,,
,,,,,,,,,,mbg_3_146_125uM,
,,,,,,,,,,mbg_3_146_125uM,
,,,,,,,,,,Collection Time: 3/14/2024 3:58:04 PM,
,,,,,,,,,,Operator Name  :,
,,,,,,,,,,Scan Software Version: 3.00(339),
,,,,,,,,,,Parameter List :,
,,,,,,,,,,Instrument                        Cary 50,
,,,,,,,,,,Instrument Version                3.00,
,,,,,,,,,,Start (nm)                        800.0,
,,,,,,,,,,Stop (nm)                         200.0,
,,,,,,,,,,X Mode                            Nanometers,
,,,,,,,,,,Y Mode                            Abs,
,,,,,,,,,,UV-Vis Scan Rate (nm/min)         300.00,
,,,,,,,,,,UV-Vis Data Interval (nm)         0.50,
,,,,,,,,,,UV-Vis Ave. Time (sec)            0.1000,
,,,,,,,,,,Beam Mode                         Dual Beam,
,,,,,,,,,,Baseline Correction               Off,
,,,,,,,,,,Cycle Mode                        Off,
,,,,,,,,,,Comments,
,,,,,,,,,,Method Log     :,
,,,,,,,,,,Method Name    :,
,,,,,,,,,,Date/Time stamp: 3/8/2024 4:34:39 PM,
,,,,,,,,,,Method Modifications:,
 New:0.1000,,,,,,,,,,UVVIS SAT Changed: 3/14/2024 3:37:37 PM, Old:0.0125
 New:0.1000,,,,,,,,,,Common SAT Changed: 3/14/2024 3:37:37 PM, Old:0.0125
 New:     0.50,,,,,,,,,,Common Interval nm Changed: 3/14/2024 3:37:38 PM, Old:     5.00
,,,,,,,,,,End Method Modifications,
,,,,,,,,,,<Current Wavelength> ,200.5