Folder: silicates_github/silicates_UV_vis/Allylsilicates_plot (part 4)

File: is_2_11_allyl_phenylcoumarine.csv
is_2_11_7uM,,is_2_11_15uM1,,is_2_11_31uM,,is_2_11_62uM,,is_2_11_125uM,,is_2_11_250uM,,
Wavelength (nm),Abs,Wavelength (nm),Abs,Wavelength (nm),Abs,Wavelength (nm),Abs,Wavelength (nm),Abs,Wavelength (nm),Abs,
799.953,-0.000571703,799.953,0.000853807,799.953,0.0010176,799.953,0.00355942,799.953,0.00600472,799.953,0.0138416,
793.562,-0.000144575,793.562,0.000615538,793.562,0.000890302,793.562,0.00324144,793.562,0.00698342,793.562,0.0141478,
787.015,-0.00109938,787.015,-0.000237568,787.015,0.000227856,787.015,0.00177144,787.015,0.0045778,787.015,0.0140591,
780.451,-0.0012947,780.451,-0.000453286,780.451,-0.00106587,780.451,0.00217952,780.451,0.00500144,780.451,0.0144981,
774.011,-0.00175349,774.011,-0.00100404,774.011,-0.00117632,774.011,0.0015091,774.011,0.00453903,774.011,0.0150566,
767.555,-0.00291968,767.555,-0.00251462,767.555,-0.00120823,767.555,0.00119595,767.555,0.00397062,767.555,0.0147924,
760.943,-0.00380468,760.943,-0.0027556,760.943,-0.00233072,760.943,0.000343461,760.943,0.00344377,760.943,0.0135874,
754.455,-0.00472336,754.455,-0.00411721,754.455,-0.00329512,754.455,-0.000633744,754.455,0.00220564,754.455,0.0122892,
747.953,-0.00580668,747.953,-0.00505729,747.953,-0.00463163,747.953,-0.00225749,747.953,0.00112574,747.953,0.0104,
741.435,-0.00729523,741.435,-0.00739464,741.435,-0.00676483,741.435,-0.00452328,741.435,-0.00079356,741.435,0.00837614,
735.044,-0.00865082,735.044,-0.00794099,735.044,-0.00735881,735.044,-0.00539224,735.044,-0.00173684,735.044,0.00722658,
728.496,-0.0105227,728.496,-0.00968075,728.496,-0.00876342,728.496,-0.00679577,728.496,-0.00355688,728.496,0.00539149,
721.933,-0.0141677,721.933,-0.0131711,721.933,-0.0127093,721.933,-0.0104752,721.933,-0.00734756,721.933,0.00119428,
715.499,-0.0141561,715.499,-0.0133791,715.499,-0.0124499,715.499,-0.0101559,715.499,-0.00753026,715.499,0.000869914,
709.051,-0.0095614,709.051,-0.00862803,709.051,-0.00770236,709.051,-0.00514801,709.051,-0.00277896,709.051,0.00656826,
702.445,-0.00139575,702.445,-0.000309486,702.445,0.000909108,702.445,0.00292985,702.445,0.00596837,702.445,0.0159048,
695.969,0.00754868,695.969,0.00863368,695.969,0.00952198,695.969,0.0121952,695.969,0.0153989,695.969,0.0255378,
689.479,0.0131073,689.479,0.0137955,689.479,0.0147834,689.479,0.0175744,689.479,0.0216274,689.479,0.0306437,
682.976,0.0167917,682.976,0.0172428,682.976,0.0184033,682.976,0.0205577,682.976,0.0246528,682.976,0.0338159,
676.46,0.0186066,676.46,0.0191556,676.46,0.0201676,676.46,0.0223086,676.46,0.026729,676.46,0.0359917,
669.931,0.0197569,669.931,0.0207957,669.931,0.0220372,669.931,0.0239547,669.931,0.0285369,669.931,0.0365294,
663.533,0.0169788,663.533,0.0178752,663.533,0.0191488,663.533,0.0213621,663.533,0.025528,663.533,0.0336983,
656.978,0.016399,656.978,0.0171511,656.978,0.0181187,656.978,0.0210997,656.978,0.0250104,656.978,0.0336967,
650.556,0.0164124,650.556,0.0174696,650.556,0.0181386,650.556,0.0206307,650.556,0.0248393,650.556,0.0346249,
643.976,0.0169101,643.976,0.0177773,643.976,0.0188127,643.976,0.0212071,643.976,0.0252868,643.976,0.0358253,
637.529,0.0160884,637.529,0.017438,637.529,0.0186965,637.529,0.0203738,637.529,0.0249793,637.529,0.0361963,
631.071,0.0163459,631.071,0.0174607,631.071,0.0186078,631.071,0.0205932,631.071,0.0251383,631.071,0.0376462,
624.454,0.0166954,624.454,0.0177059,624.454,0.0188334,624.454,0.0209187,624.454,0.025244,624.454,0.037624,
617.972,0.0162099,617.972,0.0176083,617.972,0.0186415,617.972,0.0206244,617.972,0.0249263,617.972,0.0367636,
611.478,0.0158987,611.478,0.0172475,611.478,0.0179768,611.478,0.0205985,611.478,0.0246352,611.478,0.0359381,
604.973,0.0158992,604.973,0.0168128,604.973,0.0178847,604.973,0.0206951,604.973,0.0247705,604.973,0.0352757,
598.457,0.015292,598.457,0.016452,598.457,0.0175353,598.457,0.0203501,598.457,0.024235,598.457,0.0342831,
591.93,0.0147064,591.93,0.0160085,591.93,0.0171682,591.93,0.0199094,591.93,0.0242734,591.93,0.0345071,
585.54,0.0142202,585.54,0.0153905,585.54,0.0166863,585.54,0.0192473,585.54,0.0240158,585.54,0.0353174,
578.991,0.0136456,578.991,0.0145419,578.991,0.0157787,578.991,0.018552,578.991,0.023353,578.991,0.0351433,
572.431,0.0121475,572.431,0.0132931,572.431,0.0143103,572.431,0.0174219,572.431,0.0229362,572.431,0.0338168,
566.01,0.0106992,566.01,0.0119795,566.01,0.0127631,566.01,0.0159646,566.01,0.0220472,566.01,0.0326155,
559.429,0.00883861,559.429,0.0101656,559.429,0.0110362,559.429,0.0141356,559.429,0.0206027,559.429,0.0314651,
552.988,0.00715984,552.988,0.00824387,552.988,0.00933537,552.988,0.0129748,552.988,0.0187263,552.988,0.0298466,
546.536,0.00515764,546.536,0.0063199,546.536,0.00765547,546.536,0.0116083,546.536,0.0170175,546.536,0.0274742,
539.925,0.00457087,539.925,0.00579037,539.925,0.00731329,539.925,0.0118227,539.925,0.0166523,539.925,0.0264939,
533.454,0.00618174,533.454,0.00753148,533.454,0.00916798,533.454,0.0134043,533.454,0.0183722,533.454,0.0284948,
526.974,0.0103453,526.974,0.0117115,526.974,0.0134836,526.974,0.0176178,526.974,0.0226606,526.974,0.0333085,
520.484,0.0162232,520.484,0.0175887,520.484,0.0197312,520.484,0.0237028,520.484,0.0287724,520.484,0.0396832,
513.985,0.0218052,513.985,0.0229157,513.985,0.0252708,513.985,0.0289558,513.985,0.034927,513.985,0.04605,
507.477,0.0257465,507.477,0.0268148,507.477,0.0287706,507.477,0.0325298,507.477,0.0390078,507.477,0.0505359,
500.96,0.0277139,500.96,0.0284723,500.96,0.0308406,500.96,0.0339366,500.96,0.0407219,500.96,0.0532836,
494.434,0.02772386,494.434,0.0288579,494.434,0.0310207,494.434,0.0343849,494.434,0.0410505,494.434,0.0542972,
488.051,0.0261571,488.051,0.027892,488.051,0.0296781,488.051,0.0335059,488.051,0.040389,488.051,0.055127,
481.508,0.0247113,481.508,0.0265175,481.508,0.0283431,481.508,0.0324203,481.508,0.0405416,481.508,0.0556968,
474.956,0.024671,474.956,0.0267016,474.956,0.0290228,474.956,0.0338555,474.956,0.0429867,474.956,0.0593955,
468.548,0.0289972,468.548,0.0311434,468.548,0.0337983,468.548,0.0395857,468.548,0.0503957,468.548,0.069401,
461.98,0.0353229,461.98,0.0379157,461.98,0.0414651,461.98,0.0484751,461.98,0.0619184,461.98,0.0860352,
455.556,0.0401389,455.556,0.043763,455.556,0.0481582,455.556,0.0566788,455.556,0.0743496,455.556,0.103941,
448.971,0.0433886,448.971,0.048027,448.971,0.0540789,448.971,0.0663241,448.971,0.0894423,448.971,0.126911,
442.532,0.0467974,442.532,0.0522267,442.532,0.0609092,442.532,0.0784166,442.532,0.108993,442.532,0.161323,
435.932,0.0492593,435.932,0.0570581,435.932,0.0691411,435.932,0.0930046,435.932,0.135269,435.932,0.2104,
429.477,0.052457,429.477,0.0628149,429.477,0.0797357,429.477,0.112729,429.477,0.173483,429.477,0.278868,
423.016,0.0563519,423.016,0.070497,423.016,0.0939177,423.016,0.139374,423.016,0.224436,423.016,0.377949,
416.547,0.0611711,416.547,0.0818608,416.547,0.114623,416.547,0.177044,416.547,0.298338,416.547,0.516328,
410.071,0.0672439,410.071,0.0948883,410.071,0.141377,410.071,0.228838,410.071,0.397946,410.071,0.700105,
403.433,0.0757904,403.433,0.113528,403.433,0.17815,403.433,0.299528,403.433,0.536495,403.433,0.952311,
396.943,0.0884023,396.943,0.140851,396.943,0.229761,396.943,0.396791,396.943,0.722552,396.943,1.29395,
390.447,0.106894,390.447,0.17814,390.447,0.298892,390.447,0.528032,390.447,0.96742,390.447,1.73038,
[...]
X Mode                            Nanometers
Y Mode                            Abs
UV-Vis Scan Rate (nm/min)         300.00
UV-Vis Data Interval (nm)         0.50
UV-Vis Ave. Time (sec)            0.1000
Beam Mode                         Dual Beam
Baseline Correction               Off
Cycle Mode                        Off
Comments
Method Log     :
Method Name    :
Date/Time stamp: 4/20/2024 5:05:46 PM
Method Modifications:
UVVIS SAT Changed: 4/29/2024 9:41:25 AM, Old:0.0125, New:0.1000
Common SAT Changed: 4/29/2024 9:41:25 AM, Old:0.0125, New:0.1000
Common Interval nm Changed: 4/29/2024 9:41:27 AM, Old:     5.00, New:     0.50
End Method Modifications
<Current Wavelength> , 200.5

is_2_11_62uM,
is_2_11_62uM
Collection Time: 4/29/2024 10:03:02 AM
Operator Name  :
Scan Software Version: 3.00(339)
Parameter List :
Instrument                        Cary 50
Instrument Version                3.00
Start (nm)                        800.0
Stop (nm)                         200.0
X Mode                            Nanometers
Y Mode                            Abs
UV-Vis Scan Rate (nm/min)         300.00
UV-Vis Data Interval (nm)         0.50
UV-Vis Ave. Time (sec)            0.1000
Beam Mode                         Dual Beam
Baseline Correction               Off
Cycle Mode                        Off
Comments
Method Log     :
Method Name    :
Date/Time stamp: 4/20/2024 5:05:46 PM
Method Modifications:
UVVIS SAT Changed: 4/29/2024 9:41:25 AM, Old:0.0125, New:0.1000
Common SAT Changed: 4/29/2024 9:41:25 AM, Old:0.0125, New:0.1000
Common Interval nm Changed: 4/29/2024 9:41:27 AM, Old:     5.00, New:     0.50
End Method Modifications
<Current Wavelength> , 200.5

is_2_11_125uM,
is_2_11_125uM
Collection Time: 4/29/2024 10:06:14 AM
Operator Name  :
Scan Software Version: 3.00(339)
Parameter List :
Instrument                        Cary 50
Instrument Version                3.00
Start (nm)                        800.0
Stop (nm)                         200.0
X Mode                            Nanometers
Y Mode                            Abs
UV-Vis Scan Rate (nm/min)         300.00
UV-Vis Data Interval (nm)         0.50
UV-Vis Ave. Time (sec)            0.1000
Beam Mode                         Dual Beam
Baseline Correction               Off
Cycle Mode                        Off
Comments
Method Log     :
Method Name    :
Date/Time stamp: 4/20/2024 5:05:46 PM
Method Modifications:
UVVIS SAT Changed: 4/29/2024 9:41:25 AM, Old:0.0125, New:0.1000
Common SAT Changed: 4/29/2024 9:41:25 AM, Old:0.0125, New:0.1000
Common Interval nm Changed: 4/29/2024 9:41:27 AM, Old:     5.00, New:     0.50
End Method Modifications
<Current Wavelength> , 200.5

is_2_11_250uM,
is_2_11_250uM
Collection Time: 4/29/2024 10:09:10 AM
Operator Name  :
Scan Software Version: 3.00(339)
Parameter List :
Instrument                        Cary 50
Instrument Version                3.00
Start (nm)                        800.0
Stop (nm)                         200.0
X Mode                            Nanometers
Y Mode                            Abs
UV-Vis Scan Rate (nm/min)         300.00
UV-Vis Data Interval (nm)         0.50
UV-Vis Ave. Time (sec)            0.1000
Beam Mode                         Dual Beam
Baseline Correction               Off
Cycle Mode                        Off
Comments
Method Log     :
Method Name    :
Date/Time stamp: 4/20/2024 5:05:46 PM
Method Modifications:
UVVIS SAT Changed: 4/29/2024 9:41:25 AM, Old:0.0125, New:0.1000
Common SAT Changed: 4/29/2024 9:41:25 AM, Old:0.0125, New:0.1000
Common Interval nm Changed: 4/29/2024 9:41:27 AM, Old:     5.00, New:     0.50
End Method Modifications
<Current Wavelength> , 200.5

File: mbg_3_127_is.csv
is_2_1_7uM,,mbg_3_127_5_15uM,,mbg_3_127_5_31uM1,,mbg_3_127_5_62uM3,,mbg_3_127_5_125uM2,,mbg_3_127_5_250uM,
Wavelength (nm),Abs,Wavelength (nm),Abs,Wavelength (nm),Abs,Wavelength (nm),Abs,Wavelength (nm),Abs,Wavelength (nm),Abs
799.953,-0.000884296,799.953,-0.00059285,799.953,0.000132608,799.953,0.009366713,799.953,0.009054394,799.953,-0.000893027
793.562,-0.001193359,793.562,-0.001171674,793.562,-0.000614305,793.562,0.009016625,793.562,0.008185752,793.562,-0.001400448
787.015,-0.003075212,787.015,-0.002816971,787.015,-0.002844849,787.015,0.007143154,787.015,0.006214587,787.015,-0.003023031
780.451,-0.003218458,780.451,-0.002914125,780.451,-0.002156787,780.451,0.006925634,780.451,0.006305243,780.451,-0.002782455
774.011,-0.004049507,774.011,-0.003365511,774.011,-0.003334738,774.011,0.006604263,774.011,0.005842604,774.011,-0.003443436
767.555,-0.003976821,767.555,-0.004381851,767.555,-0.00370228,767.555,0.006677045,767.555,0.004940112,767.555,-0.004275285
760.943,-0.005156299,760.943,-0.005164638,760.943,-0.004768172,760.943,0.005493588,760.943,0.004600087,760.943,-0.004974793
754.455,-0.006344725,754.455,-0.006256041,754.455,-0.005994732,754.455,0.003997114,754.455,0.002968709,754.455,-0.006314775
747.953,-0.008044123,747.953,-0.008181574,747.953,-0.007776463,747.953,0.002226116,747.953,0.001224059,747.953,-0.008094433
741.435,-0.009503,741.435,-0.0094411,741.435,-0.009077168,741.435,0.001051543,741.435,0.000271137,741.435,-0.009552889
735.044,-0.0106527,735.044,-0.010361,735.044,-0.009865006,735.044,-1.55E-05,735.044,-0.000492744,735.044,-0.0101336
728.496,-0.0119585,728.496,-0.01174884,728.496,-0.0115488,728.496,-0.00132515,728.496,-0.002284887,728.496,-0.0117895
721.933,-0.0158266,721.933,-0.0158307,721.933,-0.0154762,721.933,-0.005175075,721.933,-0.006216898,721.933,-0.0156189
715.499,-0.0154834,715.499,-0.0156735,715.499,-0.0152634,715.499,-0.005320903,715.499,-0.005862257,715.499,-0.0157082
709.051,-0.0108803,709.051,-0.0111321,709.051,-0.010504,709.051,-0.000285791,709.051,-0.00113429,709.051,-0.0111262
702.445,-0.002548643,702.445,-0.002356003,702.445,-0.002017879,702.445,0.008775554,702.445,0.007211237,702.445,-0.002467623
695.969,0.006091292,695.969,0.006487636,695.969,0.006635619,695.969,0.0169714,695.969,0.0161258,695.969,0.006271022
689.479,0.0117688,689.479,0.011756,689.479,0.01246305,689.479,0.0224545,689.479,0.0215798,689.479,0.0115708
682.976,0.01521035,682.976,0.0151265,682.976,0.0152857,682.976,0.0259832,682.976,0.0250503,682.976,0.0149716
676.46,0.017202,676.46,0.01710478,676.46,0.0170721,676.46,0.0279229,676.46,0.0267008,676.46,0.0168199
669.931,0.0177226,669.931,0.0178009,669.931,0.0180609,669.931,0.0289939,669.931,0.02764705,669.931,0.0181013
663.533,0.0156625,663.533,0.015748,663.533,0.0160083,663.533,0.0267942,663.533,0.0256437,663.533,0.0156358
656.978,0.0151962,656.978,0.0151713,656.978,0.0154145,656.978,0.0262915,656.978,0.0254436,656.978,0.0147971
650.556,0.0147235,650.556,0.0149469,650.556,0.0149729,650.556,0.0264071,650.556,0.0248607,650.556,0.0147887
643.976,0.0148871,643.976,0.01477833,643.976,0.0151614,643.976,0.0260811,643.976,0.0250828,643.976,0.0148672
637.529,0.0149982,637.529,0.0149185,637.529,0.0152668,637.529,0.0260927,637.529,0.0254305,637.529,0.0149383
631.071,0.0148718,631.071,0.0149096,631.071,0.0152624,631.071,0.0259254,631.071,0.0253643,631.071,0.0147566
624.454,0.01512827,624.454,0.0151285,624.454,0.0154721,624.454,0.0262222,624.454,0.0256397,624.454,0.0149248
617.972,0.0147771,617.972,0.0151123,617.972,0.015263,617.972,0.0265248,617.972,0.0255068,617.972,0.0148932
611.478,0.0143319,611.478,0.0145282,611.478,0.0147541,611.478,0.02612103,611.478,0.0253517,611.478,0.0144982
604.973,0.0142284,604.973,0.0143168,604.973,0.0147011,604.973,0.0257156,604.973,0.02485339,604.973,0.01434334
598.457,0.0137533,598.457,0.013824,598.457,0.0142774,598.457,0.0256897,598.457,0.0246262,598.457,0.0138598
591.93,0.0132452,591.93,0.0132905,591.93,0.01384499,591.93,0.0251786,591.93,0.0242337,591.93,0.0135808
585.54,0.0127116,585.54,0.0128147,585.54,0.0130458,585.54,0.0246697,585.54,0.0235706,585.54,0.012819
578.991,0.0118774,578.991,0.0120175,578.991,0.0122223,578.991,0.02406597,578.991,0.0230537,578.991,0.0119601
572.431,0.01052896,572.431,0.0105933,572.431,0.01103058,572.431,0.0227242,572.431,0.0215887,572.431,0.0107777
566.01,0.009126452,566.01,0.009169756,566.01,0.009671395,566.01,0.021274,566.01,0.0203111,566.01,0.009222371
559.429,0.007301785,559.429,0.007418131,559.429,0.007798477,559.429,0.01956,559.429,0.0185257,559.429,0.007657738
552.988,0.005406509,552.988,0.005509527,552.988,0.005791787,552.988,0.0178805,552.988,0.0167373,552.988,0.005546808
546.536,0.003438471,546.536,0.003654407,546.536,0.003920835,546.536,0.0161273,546.536,0.0152408,546.536,0.003684873
539.925,0.002888961,539.925,0.002991541,539.925,0.003447394,539.925,0.0155277,539.925,0.0143919,539.925,0.003194555
533.454,0.004489804,533.454,0.004647756,533.454,0.005065202,533.454,0.0169597,533.454,0.0161795,533.454,0.004854845
526.974,0.008620898,526.974,0.008846006,526.974,0.009387768,526.974,0.0213784,526.974,0.0209657,526.974,0.009035813
520.484,0.0145176,520.484,0.0146651,520.484,0.0154151,520.484,0.0276582,520.484,0.02664474,520.484,0.0152716
513.985,0.0200705,513.985,0.02006492,513.985,0.02083971,513.985,0.0333208,513.985,0.0327602,513.985,0.0212682
507.477,0.0237815,507.477,0.0240867,507.477,0.02488379,507.477,0.0372517,507.477,0.0368378,507.477,0.0259743
500.96,0.0259658,500.96,0.0262454,500.96,0.0270916,500.96,0.0400804,500.96,0.0402474,500.96,0.0302133
494.434,0.0262778,494.434,0.0269258,494.434,0.0284943,494.434,0.0422365,494.434,0.0435964,494.434,0.0356746
488.051,0.0261138,488.051,0.0274679,488.051,0.0296547,488.051,0.0440061,488.051,0.0480443,488.051,0.0444906
481.508,0.0259428,481.508,0.0286175,481.508,0.0325647,481.508,0.0476479,481.508,0.0571214,481.508,0.0610429
474.956,0.0278173,474.956,0.0324609,474.956,0.0383341,474.956,0.054966,474.956,0.07140328,474.956,0.0865909
468.548,0.0341693,468.548,0.0412714,468.548,0.0496892,468.548,0.0691182,468.548,0.0952498,468.548,0.126623
461.98,0.04270931,461.98,0.0519744,461.98,0.0639339,461.98,0.0876748,461.98,0.125049,461.98,0.179813
455.556,0.0492889,455.556,0.0613389,455.556,0.0769417,455.556,0.106443,455.556,0.157663,455.556,0.2402
448.971,0.0544571,448.971,0.0693259,448.971,0.0894995,448.971,0.125731,448.971,0.194554,448.971,0.31377
442.532,0.058461,442.532,0.0772439,442.532,0.102263,442.532,0.148683,442.532,0.240782,442.532,0.409251
435.932,0.0623545,435.932,0.0853758,435.932,0.117452,435.932,0.177403,435.932,0.30236,435.932,0.542294
429.477,0.0681052,429.477,0.0972952,429.477,0.140063,429.477,0.221209,429.477,0.393174,429.477,0.732733
423.016,0.0778408,423.016,0.1181,423.016,0.178641,423.016,0.293219,423.016,0.542181,423.016,1.04664
416.547,0.0943161,416.547,0.150684,416.547,0.237846,416.547,0.404218,416.547,0.768792,416.547,1.51422
410.071,0.114726,410.071,0.194973,410.071,0.3203,410.071,0.550199,410.071,1.0772,410.071,2.15282
403.433,0.139159,403.433,0.246178,403.433,0.412386,403.433,0.720738,403.433,1.4273,403.433,2.87306
396.943,0.162826,396.943,0.295439,396.943,0.502423,396.943,0.888272,396.943,1.76961,396.943,3.40794
390.447,0.184181,390.447,0.339145,390.447,0.582954,390.447,1.03289,390.447,2.06766,390.447,3.97668
[...]
Instrument Version                3.00,,,,,,,,,,,
Start (nm)                        800.0,,,,,,,,,,,
Stop (nm)                         200.0,,,,,,,,,,,
X Mode                            Nanometers,,,,,,,,,,,
Y Mode                            Abs,,,,,,,,,,,
UV-Vis Scan Rate (nm/min)         300.00,,,,,,,,,,,
UV-Vis Data Interval (nm)         0.50,,,,,,,,,,,
UV-Vis Ave. Time (sec)            0.1000,,,,,,,,,,,
Beam Mode                         Dual Beam,,,,,,,,,,,
Baseline Correction               Off,,,,,,,,,,,
Cycle Mode                        Off,,,,,,,,,,,
Comments,,,,,,,,,,,
Method Log     :,,,,,,,,,,,
Method Name    :,,,,,,,,,,,
Date/Time stamp: 3/8/2024 4:34:39 PM,,,,,,,,,,,
Method Modifications:,,,,,,,,,,,
UVVIS SAT Changed: 4/2/2024 1:01:48 PM, Old:0.0125, New:0.1000,,,,,,,,,
Common SAT Changed: 4/2/2024 1:01:48 PM, Old:0.0125, New:0.1000,,,,,,,,,
Common Interval nm Changed: 4/2/2024 1:01:49 PM, Old:     5.00, New:     0.50,,,,,,,,,
End Method Modifications,,,,,,,,,,,
<Current Wavelength> ,200.5,,,,,,,,,,
,,,,,,,,,,,
mbg_3_127_5_250uM,,,,,,,,,,,
mbg_3_127_5_250uM,,,,,,,,,,,
Collection Time: 4/2/2024 1:35:58 PM,,,,,,,,,,,
Operator Name  :,,,,,,,,,,,
Scan Software Version: 3.00(339),,,,,,,,,,,
Parameter List :,,,,,,,,,,,
Instrument                        Cary 50,,,,,,,,,,,
Instrument Version                3.00,,,,,,,,,,,
Start (nm)                        800.0,,,,,,,,,,,
Stop (nm)                         200.0,,,,,,,,,,,
X Mode                            Nanometers,,,,,,,,,,,
Y Mode                            Abs,,,,,,,,,,,
UV-Vis Scan Rate (nm/min)         300.00,,,,,,,,,,,
UV-Vis Data Interval (nm)         0.50,,,,,,,,,,,
UV-Vis Ave. Time (sec)            0.1000,,,,,,,,,,,
Beam Mode                         Dual Beam,,,,,,,,,,,
Baseline Correction               Off,,,,,,,,,,,
Cycle Mode                        Off,,,,,,,,,,,
Comments,,,,,,,,,,,
Method Log     :,,,,,,,,,,,
Method Name    :,,,,,,,,,,,
Date/Time stamp: 3/8/2024 4:34:39 PM,,,,,,,,,,,
Method Modifications:,,,,,,,,,,,
UVVIS SAT Changed: 4/2/2024 1:01:48 PM, Old:0.0125, New:0.1000,,,,,,,,,
Common SAT Changed: 4/2/2024 1:01:48 PM, Old:0.0125, New:0.1000,,,,,,,,,
Common Interval nm Changed: 4/2/2024 1:01:49 PM, Old:     5.00, New:     0.50,,,,,,,,,
End Method Modifications,,,,,,,,,,,
<Current Wavelength> ,200.5,,,,,,,,,,
,,,,,,,,,,,
mbg_3_127_5_125uM2,,,,,,,,,,,
mbg_3_127_5_125uM2,,,,,,,,,,,
Collection Time: 4/2/2024 1:20:20 PM,,,,,,,,,,,
Operator Name  :,,,,,,,,,,,
Scan Software Version: 3.00(339),,,,,,,,,,,
Parameter List :,,,,,,,,,,,
Instrument                        Cary 50,,,,,,,,,,,
Instrument Version                3.00,,,,,,,,,,,
Start (nm)                        800.0,,,,,,,,,,,
Stop (nm)                         200.0,,,,,,,,,,,
X Mode                            Nanometers,,,,,,,,,,,
Y Mode                            Abs,,,,,,,,,,,
UV-Vis Scan Rate (nm/min)         300.00,,,,,,,,,,,
UV-Vis Data Interval (nm)         0.50,,,,,,,,,,,
UV-Vis Ave. Time (sec)            0.1000,,,,,,,,,,,
Beam Mode                         Dual Beam,,,,,,,,,,,
Baseline Correction               Off,,,,,,,,,,,
Cycle Mode                        Off,,,,,,,,,,,
Comments,,,,,,,,,,,
Method Log     :,,,,,,,,,,,
Method Name    :,,,,,,,,,,,
Date/Time stamp: 3/8/2024 4:34:39 PM,,,,,,,,,,,
Method Modifications:,,,,,,,,,,,
UVVIS SAT Changed: 4/2/2024 1:01:48 PM, Old:0.0125, New:0.1000,,,,,,,,,
Common SAT Changed: 4/2/2024 1:01:48 PM, Old:0.0125, New:0.1000,,,,,,,,,
Common Interval nm Changed: 4/2/2024 1:01:49 PM, Old:     5.00, New:     0.50,,,,,,,,,
End Method Modifications,,,,,,,,,,,
<Current Wavelength> ,200.5,,,,,,,,,,