Folder: silicates_github/silicates_UV_vis/Allylsilicates_plot

Note: README.md
# silicates_github
 Repo for catecholato silicates

File: cat500W.txt
0,0.00330731
3.50175,0.0157364
7.0035,0.0267862
10.5053,0.0356767
14.007,0.0335234
17.5088,0.0252662
21.0105,0.0201153
24.5123,0.0253869
28.014,0.0420219
31.5158,0.0406889
35.0175,0.0602553
38.5193,0.0369554
42.021,0.0446637
45.5228,0.0475649
49.0245,0.0427517
52.5263,0.0642241
56.028,0.0495011
59.5298,0.0624026
63.0315,0.0659371
66.5333,0.0688564
70.035,0.0617693
73.5368,0.078724
77.0385,0.0711001
80.5403,0.0894481
84.042,0.0782837
87.5438,0.0693087
91.0455,0.0780967
94.5473,0.0897859
98.049,0.0795744
101.551,0.0841645
105.053,0.0852019
108.554,0.0961794
112.056,0.0949127
115.558,0.103924
119.06,0.101523
122.561,0.110637
126.063,0.110703
129.565,0.0997923
133.067,0.10776
136.568,0.114371
140.07,0.112585
143.572,0.099744
147.074,0.113466
150.575,0.112664
154.077,0.11495
157.579,0.110245
161.081,0.136784
164.582,0.127459
168.084,0.117845
171.586,0.123677
175.088,0.128515
178.589,0.114274
182.091,0.119624
185.593,0.126584
189.095,0.130541
192.596,0.127694
196.098,0.138153
199.6,0.124697
203.102,0.137857
206.603,0.136458
210.105,0.144691
213.607,0.149909
217.109,0.137043
220.61,0.14246
224.112,0.135415
227.614,0.153081
231.116,0.13945
234.617,0.14714
238.119,0.148431
241.621,0.136639
245.123,0.156145
248.624,0.159143
252.126,0.143322
255.628,0.134818
259.13,0.156965
262.631,0.154354
266.133,0.150753
269.635,0.162732
273.137,0.166809
276.638,0.145361
280.14,0.156061
283.642,0.137761
287.144,0.156236
290.645,0.156399
294.147,0.147303
297.649,0.175404
301.151,0.140475
304.652,0.160331
308.154,0.161917
311.656,0.134142
315.158,0.160633
318.659,0.16003
322.161,0.150934
325.663,0.161942
329.165,0.145656
332.666,0.163419
336.168,0.152056
339.67,0.156435
343.172,0.16591
346.673,0.169029
350.175,0.16582
353.677,0.163112
357.179,0.167111
360.68,0.156996
364.182,0.170549
367.684,0.170536
371.186,0.151266
374.687,0.156941
378.189,0.179083
381.691,0.160229
385.193,0.180917
388.694,0.167599
392.196,0.166574
395.698,0.180549
399.2,0.179505
402.701,0.182678
406.203,0.180205
409.705,0.178987
413.207,0.165078
416.708,0.181466
420.21,0.160892
423.712,0.172871
427.214,0.171357
430.715,0.17389
434.217,0.185585
437.719,0.174469
441.221,0.176049
444.722,0.158455
448.224,0.1686
451.726,0.177171
455.228,0.18947
458.729,0.182931
462.231,0.187612
465.733,0.193812
469.235,0.16731
472.736,0.193203
476.238,0.195555
479.74,0.189626
483.242,0.182509
486.743,0.1693
490.245,0.196943
493.747,0.181671
497.249,0.19231
500.75,0.183317
504.252,0.195236
507.754,0.204398
511.256,0.184361
514.757,0.182859
518.259,0.153075
521.761,0.190815
525.263,0.164873
528.764,0.180585
532.266,0.188752
535.768,0.197847
539.27,0.196762
542.771,0.198644
546.273,0.187919
549.775,0.174638
553.277,0.183728
556.778,0.189355
560.28,0.197552
563.782,0.193209
567.284,0.181345
570.785,0.199404
574.287,0.204283
577.789,0.182642
581.291,0.183342
584.792,0.192268
588.294,0.189711
591.796,0.179023
595.298,0.181134
598.799,0.192341
602.301,0.204036
605.803,0.187546
609.305,0.183106
612.806,0.188384
616.308,0.191689
619.81,0.20973
623.312,0.190314
626.813,0.195181
630.315,0.188933
633.817,0.196267
637.319,0.194259
640.82,0.196026
644.322,0.214917
647.824,0.182413
651.326,0.206352
654.827,0.207787
658.329,0.18602
661.831,0.196303
665.333,0.179711
668.834,0.196882
672.336,0.212347
675.838,0.2021
679.34,0.194777
682.841,0.199898
686.343,0.211491
689.845,0.192739
693.347,0.191864
696.848,0.209826
700.35,0.18728
703.852,0.202986
707.354,0.211002
710.855,0.195381
714.357,0.192684
717.859,0.194235
721.361,0.201316
724.862,0.193662
728.364,0.181267
731.866,0.188191
735.368,0.194295
738.869,0.1907
742.371,0.191569
745.873,0.187172
749.375,0.191412
752.876,0.205954
756.378,0.201605
759.88,0.209223
763.382,0.200399
766.883,0.212812
770.385,0.210453
773.887,0.199898
777.389,0.191068
780.89,0.196961
784.392,0.206388
787.894,0.195097
791.396,0.196092
794.897,0.191587
798.399,0.207516
801.901,0.201533
805.403,0.208252
808.904,0.199331
812.406,0.202612
815.908,0.193137
819.41,0.199591
822.911,0.212981
826.413,0.206141
829.915,0.194566
833.417,0.205134
836.918,0.196611
840.42,0.205701
843.922,0.191207
847.424,0.204651
850.925,0.20637
854.427,0.216594
857.929,0.215062
861.431,0.192727
864.932,0.208614
868.434,0.194017
871.936,0.215713
875.438,0.205948
878.939,0.199711
882.441,0.18196
885.943,0.192371
889.445,0.208638
892.946,0.208722
896.448,0.208155
899.95,0.223415
903.452,0.195067
906.953,0.219609
910.455,0.209036
913.957,0.208608
917.459,0.198095
920.96,0.215641
924.462,0.205266
927.964,0.220828
931.466,0.206388
934.967,0.214476
938.469,0.212215
941.971,0.217559
945.473,0.221461
948.974,0.199856
952.476,0.209096
955.978,0.212908
959.48,0.207824
962.981,0.205694
966.483,0.191514
969.985,0.21552
973.487,0.234531
976.988,0.217347
980.49,0.201255
983.992,0.203728
987.494,0.222486
990.995,0.206895
994.497,0.216232
997.999,0.214133
1000,0.21327

File: is_2_3_allyl_methoxysilicate.csv
is_2_3_31uM,,is_2_3_15uM,,is_2_3_62uM,,is_2_3_125uM,,is_2_3_250uM1,,
Wavelength (nm),Abs,Wavelength (nm),Abs,Wavelength (nm),Abs,Wavelength (nm),Abs,Wavelength (nm),Abs,
799.953,-0.000748753,799.953,-0.000554434,799.953,-0.00162823,799.953,-0.000842185,799.953,-0.000916844,
794.536,-0.000336439,794.536,-0.00115851,794.536,-0.000955951,794.536,-0.000851176,794.536,-0.00120017,
788.967,-0.0010137,788.967,-0.00196021,788.967,-0.00120012,788.967,-0.00220881,788.967,-0.00172915,
783.526,-0.00187661,783.526,-0.00274511,783.526,-0.00212392,783.526,-0.00250278,783.526,-0.00263124,
777.933,-0.00283626,777.933,-0.0027503,777.933,-0.00319194,777.933,-0.00256156,777.933,-0.00259959,
772.469,-0.00351118,772.469,-0.0033463,772.469,-0.00343578,772.469,-0.00407961,772.469,-0.00355478,
766.993,-0.00342458,766.993,-0.00399201,766.993,-0.00401309,766.993,-0.00419382,766.993,-0.00393942,
761.506,-0.00416367,761.506,-0.00444217,761.506,-0.00456775,761.506,-0.00457272,761.506,-0.00480791,
756.008,-0.00554786,756.008,-0.00559391,756.008,-0.00548427,756.008,-0.00552312,756.008,-0.00595194,
750.499,-0.00644329,750.499,-0.00646976,750.499,-0.00656136,750.499,-0.00669969,750.499,-0.00677054,
744.979,-0.00744655,744.979,-0.00800316,744.979,-0.00801531,744.979,-0.00798913,744.979,-0.00757575,
739.448,-0.00944601,739.448,-0.00966926,739.448,-0.0094877,739.448,-0.00980366,739.448,-0.0098066,
734.048,-0.00948932,734.048,-0.0100171,734.048,-0.00981207,734.048,-0.00981212,734.048,-0.0101367,
728.496,-0.011138,728.496,-0.0114269,728.496,-0.0114726,728.496,-0.0117041,728.496,-0.0117201,
722.933,-0.0146522,722.933,-0.0149381,722.933,-0.0149608,722.933,-0.0150752,722.933,-0.0150591,
717.502,-0.0153716,717.502,-0.0159769,717.502,-0.0158003,717.502,-0.0159348,717.502,-0.015906,
712.062,-0.0133455,712.062,-0.0134347,712.062,-0.0134526,712.062,-0.0136269,712.062,-0.0136114,
706.468,-0.00726315,706.468,-0.00761965,706.468,-0.0074891,706.468,-0.00791313,706.468,-0.00774071,
701.007,0.000133333,701.007,-0.000393754,701.007,-0.000375391,701.007,-0.000311452,701.007,-0.00025128,
695.537,0.00711776,695.537,0.00684721,695.537,0.0071891,695.537,0.00682423,695.537,0.00669705,
690.057,0.011691,690.057,0.0117924,690.057,0.0111895,690.057,0.0112301,690.057,0.0111332,
684.567,0.014727,684.567,0.0145066,684.567,0.0148751,684.567,0.0143046,684.567,0.0144498,
679.068,0.0169204,679.068,0.0166212,679.068,0.0165581,679.068,0.0162689,679.068,0.016371,
673.56,0.0180918,673.56,0.017793,673.56,0.0175822,673.56,0.0172924,673.56,0.0177512,
668.042,0.0181712,668.042,0.0174061,668.042,0.0176493,668.042,0.0174689,668.042,0.0177556,
662.515,0.0158998,662.515,0.0154586,662.515,0.0154917,662.515,0.0153608,662.515,0.0157656,
656.978,0.0154994,656.978,0.0153338,656.978,0.0151019,656.978,0.0148919,656.978,0.015033,
651.433,0.0152539,651.433,0.0148835,651.433,0.0152373,651.433,0.01481,651.433,0.0149011,
646.024,0.0151597,646.024,0.0147934,646.024,0.0148812,646.024,0.014744,646.024,0.0146372,
640.461,0.0152173,640.461,0.014877,640.461,0.0150305,640.461,0.0148338,640.461,0.0146588,
635.035,0.01525,635.035,0.0150945,635.035,0.0151359,635.035,0.0146088,635.035,0.0148339,
629.454,0.0154424,629.454,0.0149557,629.454,0.0149525,629.454,0.0147579,629.454,0.0148784,
624.012,0.0156452,624.012,0.0153707,624.012,0.015157,624.012,0.0152482,624.012,0.0151118,
618.561,0.0153027,618.561,0.0152855,618.561,0.0154444,618.561,0.0150371,618.561,0.0149348,
612.955,0.0152228,612.955,0.0146467,612.955,0.0147902,612.955,0.0146444,612.955,0.0146541,
607.488,0.0147689,607.488,0.0144235,607.488,0.0149515,607.488,0.0142555,607.488,0.0142884,
602.013,0.0145902,602.013,0.0141323,602.013,0.0144999,602.013,0.0140892,602.013,0.0142021,
596.53,0.0142453,596.53,0.0138788,596.53,0.0141999,596.53,0.0136496,596.53,0.0139034,
591.039,0.0137309,591.039,0.0132537,591.039,0.0135974,591.039,0.0133668,591.039,0.0131962,
585.54,0.0130874,585.54,0.0127454,585.54,0.0130755,585.54,0.012685,585.54,0.0128593,
580.033,0.0122758,580.033,0.0121675,580.033,0.0121651,580.033,0.0119254,580.033,0.0119378,
574.519,0.0114404,574.519,0.0109697,574.519,0.0111711,574.519,0.0109935,574.519,0.0110021,
568.998,0.0101879,568.998,0.00979055,568.998,0.0100071,568.998,0.00990764,568.998,0.00995089,
563.469,0.00883544,563.469,0.00842576,563.469,0.0086594,563.469,0.00849087,563.469,0.00844122,
557.932,0.00733338,557.932,0.00697861,557.932,0.00702178,557.932,0.00695599,557.932,0.00690067,
552.538,0.00559421,552.538,0.00546318,552.538,0.00535422,552.538,0.00537637,552.538,0.00521818,
546.987,0.00402912,546.987,0.00377111,546.987,0.00374317,546.987,0.00364626,546.987,0.0038447,
541.429,0.00335791,541.429,0.00290707,541.429,0.00311537,541.429,0.00298469,541.429,0.00302955,
536.014,0.00395944,536.014,0.00359074,536.014,0.00374364,536.014,0.00378829,536.014,0.00384141,
530.441,0.00659919,530.441,0.00613616,530.441,0.00638281,530.441,0.00636886,530.441,0.00618749,
525.013,0.010852,525.013,0.010518,525.013,0.0107954,525.013,0.0106498,525.013,0.0107219,
519.427,0.0158643,519.427,0.0153558,519.427,0.0153293,519.427,0.0157189,519.427,0.0154964,
513.985,0.0201584,513.985,0.0199544,513.985,0.0200441,513.985,0.0201802,513.985,0.0203689,
508.537,0.0234306,508.537,0.0229932,508.537,0.0233786,508.537,0.0231896,508.537,0.0235446,
502.931,0.0251661,502.931,0.0248525,502.931,0.0251113,502.931,0.0251751,502.931,0.0252696,
497.471,0.0261183,497.471,0.0254311,497.471,0.0257187,497.471,0.0255987,497.471,0.0259328,
492.003,0.0253147,492.003,0.0248318,492.003,0.0250473,492.003,0.0251833,492.003,0.0253324,
486.53,0.0241753,486.53,0.0236555,486.53,0.0239244,486.53,0.0236469,486.53,0.0238724,
481.051,0.0225262,481.051,0.0220255,481.051,0.0222891,481.051,0.0221799,481.051,0.0224528,
475.566,0.0220687,475.566,0.0216886,475.566,0.0220218,475.566,0.0218616,475.566,0.0220546,
470.075,0.0250945,470.075,0.0243221,470.075,0.0248436,470.075,0.0248385,470.075,0.0247895,
464.425,0.0298702,464.425,0.0290482,464.425,0.0296201,464.425,0.0295074,464.425,0.0298727,
459.075,0.0332941,459.075,0.0329295,459.075,0.0333782,459.075,0.0333553,459.075,0.0337109,
453.566,0.0358777,453.566,0.0353549,453.566,0.0357884,453.566,0.0357481,453.566,0.0362199,
448.052,0.0374358,448.052,0.0370486,448.052,0.0373601,448.052,0.0372697,448.052,0.0380856,
442.532,0.0378144,442.532,0.0374061,442.532,0.0383013,442.532,0.038289,442.532,0.0385962,
437.007,0.037919,437.007,0.0374765,437.007,0.0379059,437.007,0.0379884,437.007,0.0389054,
431.476,0.0371989,431.476,0.0367681,431.476,0.0373833,431.476,0.0373973,431.476,0.0381246,
425.94,0.0365739,425.94,0.0359618,425.94,0.0367404,425.94,0.0368666,425.94,0.0379698,
420.552,0.0360929,420.552,0.0353911,420.552,0.0365673,420.552,0.0365408,420.552,0.0376385,
415.005,0.0350154,415.005,0.0344252,415.005,0.0353268,415.005,0.0357651,415.005,0.0366659,
409.454,0.0338329,409.454,0.0331999,409.454,0.0341457,409.454,0.0345354,409.454,0.0355128,
404.051,0.0321955,404.051,0.0315601,404.051,0.0325398,404.051,0.0329063,404.051,0.0340895,
398.489,0.0308632,398.489,0.0294352,398.489,0.031052,398.489,0.0315717,398.489,0.0325762,
393.077,0.0298455,393.077,0.0288726,393.077,0.0298134,393.077,0.0304642,393.077,0.0319833,
387.506,0.0297298,387.506,0.029258,387.506,0.0302829,387.506,0.0305897,387.506,0.0322831,
[...]
X Mode                            Nanometers
Y Mode                            Abs
UV-Vis Scan Rate (nm/min)         300.00
UV-Vis Data Interval (nm)         0.50
UV-Vis Ave. Time (sec)            0.1000
Beam Mode                         Dual Beam
Baseline Correction               Off
Cycle Mode                        Off
Comments
Method Log     :
Method Name    :
Date/Time stamp: 4/20/2024 5:05:46 PM
Method Modifications:
UVVIS SAT Changed: 4/29/2024 11:08:58 AM, Old:0.0125, New:0.1000
Common SAT Changed: 4/29/2024 11:08:58 AM, Old:0.0125, New:0.1000
Common Interval nm Changed: 4/29/2024 11:08:59 AM, Old:     5.00, New:     0.50
End Method Modifications
<Current Wavelength> , 200.5

is_2_3_62uM,
is_2_3_62uM
Collection Time: 4/29/2024 11:22:35 AM
Operator Name  :
Scan Software Version: 3.00(339)
Parameter List :
Instrument                        Cary 50
Instrument Version                3.00
Start (nm)                        800.0
Stop (nm)                         200.0
X Mode                            Nanometers
Y Mode                            Abs
UV-Vis Scan Rate (nm/min)         300.00
UV-Vis Data Interval (nm)         0.50
UV-Vis Ave. Time (sec)            0.1000
Beam Mode                         Dual Beam
Baseline Correction               Off
Cycle Mode                        Off
Comments
Method Log     :
Method Name    :
Date/Time stamp: 4/20/2024 5:05:46 PM
Method Modifications:
UVVIS SAT Changed: 4/29/2024 11:08:58 AM, Old:0.0125, New:0.1000
Common SAT Changed: 4/29/2024 11:08:58 AM, Old:0.0125, New:0.1000
Common Interval nm Changed: 4/29/2024 11:08:59 AM, Old:     5.00, New:     0.50
End Method Modifications
<Current Wavelength> , 200.5

is_2_3_125uM,
is_2_3_125uM
Collection Time: 4/29/2024 11:26:27 AM
Operator Name  :
Scan Software Version: 3.00(339)
Parameter List :
Instrument                        Cary 50
Instrument Version                3.00
Start (nm)                        800.0
Stop (nm)                         200.0
X Mode                            Nanometers
Y Mode                            Abs
UV-Vis Scan Rate (nm/min)         300.00
UV-Vis Data Interval (nm)         0.50
UV-Vis Ave. Time (sec)            0.1000
Beam Mode                         Dual Beam
Baseline Correction               Off
Cycle Mode                        Off
Comments
Method Log     :
Method Name    :
Date/Time stamp: 4/20/2024 5:05:46 PM
Method Modifications:
UVVIS SAT Changed: 4/29/2024 11:08:58 AM, Old:0.0125, New:0.1000
Common SAT Changed: 4/29/2024 11:08:58 AM, Old:0.0125, New:0.1000
Common Interval nm Changed: 4/29/2024 11:08:59 AM, Old:     5.00, New:     0.50
End Method Modifications
<Current Wavelength> , 200.5

is_2_3_250uM1,
is_2_3_250uM1
Collection Time: 4/29/2024 11:30:30 AM
Operator Name  :
Scan Software Version: 3.00(339)
Parameter List :
Instrument                        Cary 50
Instrument Version                3.00
Start (nm)                        800.0
Stop (nm)                         200.0
X Mode                            Nanometers
Y Mode                            Abs
UV-Vis Scan Rate (nm/min)         300.00
UV-Vis Data Interval (nm)         0.50
UV-Vis Ave. Time (sec)            0.1000
Beam Mode                         Dual Beam
Baseline Correction               Off
Cycle Mode                        Off
Comments
Method Log     :
Method Name    :
Date/Time stamp: 4/20/2024 5:05:46 PM
Method Modifications:
UVVIS SAT Changed: 4/29/2024 11:08:58 AM, Old:0.0125, New:0.1000
Common SAT Changed: 4/29/2024 11:08:58 AM, Old:0.0125, New:0.1000
Common Interval nm Changed: 4/29/2024 11:08:59 AM, Old:     5.00, New:     0.50
End Method Modifications
<Current Wavelength> , 200.5